------------ Data File Created By ActiGraph GT3X+ ActiLife v6.13.4 Firmware v1.7.2 date format M/d/yyyy at 100 Hz  Filter Normal -----------
Serial Number: TAS1H50200818
Start Time 15:20:00
Start Date 10/4/2023
Epoch Period (hh:mm:ss) 00:00:00
Download Time 15:24:19
Download Date 10/4/2023
Current Memory Address: 0
Current Battery Voltage: 4.15     Mode = 12
--------------------------------------------------
Timestamp,Accelerometer X,Accelerometer Y,Accelerometer Z
10/4/2023 15:20:00.000,-0.074,-0.027,1.027
10/4/2023 15:20:00.010,-0.039,-0.027,1.047
10/4/2023 15:20:00.020,-0.023,-0.031,1.043
10/4/2023 15:20:00.030,-0.027,-0.031,1.047
10/4/2023 15:20:00.040,-0.027,-0.047,1.039
10/4/2023 15:20:00.050,-0.023,-0.059,1.031
10/4/2023 15:20:00.060,-0.012,-0.074,1.027
10/4/2023 15:20:00.070,0.004,-0.102,1.004
10/4/2023 15:20:00.080,0.008,-0.148,0.957
10/4/2023 15:20:00.090,0.016,-0.211,0.895
10/4/2023 15:20:00.100,-0.004,-0.285,0.832
10/4/2023 15:20:00.110,-0.031,-0.328,0.789
10/4/2023 15:20:00.120,-0.039,-0.344,0.738
10/4/2023 15:20:00.130,-0.023,-0.375,0.664
10/4/2023 15:20:00.140,-0.031,-0.441,0.598
10/4/2023 15:20:00.150,-0.055,-0.52,0.539
10/4/2023 15:20:00.160,-0.09,-0.582,0.457
10/4/2023 15:20:00.170,-0.09,-0.602,0.367
10/4/2023 15:20:00.180,-0.047,-0.598,0.289
10/4/2023 15:20:00.190,0.023,-0.574,0.207
10/4/2023 15:20:00.200,0.098,-0.543,0.125
10/4/2023 15:20:00.210,0.172,-0.512,0.051
10/4/2023 15:20:00.220,0.266,-0.477,-0.023
10/4/2023 15:20:00.230,0.395,-0.445,-0.059
10/4/2023 15:20:00.240,0.57,-0.418,-0.039
10/4/2023 15:20:00.250,0.766,-0.395,-0.016
10/4/2023 15:20:00.260,0.953,-0.324,-0.039
10/4/2023 15:20:00.270,1.141,-0.203,-0.078
10/4/2023 15:20:00.280,1.316,-0.09,-0.113
10/4/2023 15:20:00.290,1.473,-0.027,-0.141
10/4/2023 15:20:00.300,1.629,0,-0.152
10/4/2023 15:20:00.310,1.785,-0.008,-0.145
10/4/2023 15:20:00.320,1.973,-0.043,-0.148
10/4/2023 15:20:00.330,2.219,-0.043,-0.18
10/4/2023 15:20:00.340,2.496,0.016,-0.23
10/4/2023 15:20:00.350,2.754,0.117,-0.324
10/4/2023 15:20:00.360,2.961,0.199,-0.434
10/4/2023 15:20:00.370,3.133,0.262,-0.516
10/4/2023 15:20:00.380,3.27,0.297,-0.555
10/4/2023 15:20:00.390,3.383,0.34,-0.555
10/4/2023 15:20:00.400,3.441,0.371,-0.523
10/4/2023 15:20:00.410,3.375,0.402,-0.441
10/4/2023 15:20:00.420,3.234,0.434,-0.32
10/4/2023 15:20:00.430,3.07,0.473,-0.191
10/4/2023 15:20:00.440,2.906,0.535,-0.102
10/4/2023 15:20:00.450,2.75,0.586,-0.047
10/4/2023 15:20:00.460,2.633,0.621,-0.055
10/4/2023 15:20:00.470,2.551,0.633,-0.117
10/4/2023 15:20:00.480,2.473,0.633,-0.215
10/4/2023 15:20:00.490,2.387,0.617,-0.316
10/4/2023 15:20:00.500,2.266,0.621,-0.395
10/4/2023 15:20:00.510,2.141,0.609,-0.43
10/4/2023 15:20:00.520,1.996,0.605,-0.441
10/4/2023 15:20:00.530,1.855,0.602,-0.426
10/4/2023 15:20:00.540,1.738,0.59,-0.395
10/4/2023 15:20:00.550,1.637,0.574,-0.344
10/4/2023 15:20:00.560,1.535,0.555,-0.266
10/4/2023 15:20:00.570,1.43,0.543,-0.184
10/4/2023 15:20:00.580,1.324,0.551,-0.105
10/4/2023 15:20:00.590,1.219,0.559,-0.031
10/4/2023 15:20:00.600,1.102,0.563,0.02
10/4/2023 15:20:00.610,1.004,0.57,0.043
10/4/2023 15:20:00.620,0.918,0.57,0.059
10/4/2023 15:20:00.630,0.832,0.574,0.063
10/4/2023 15:20:00.640,0.754,0.566,0.059
10/4/2023 15:20:00.650,0.68,0.566,0.051
10/4/2023 15:20:00.660,0.625,0.563,0.035
10/4/2023 15:20:00.670,0.578,0.578,0.016
10/4/2023 15:20:00.680,0.551,0.594,-0.004
10/4/2023 15:20:00.690,0.523,0.613,-0.023
10/4/2023 15:20:00.700,0.488,0.625,-0.047
10/4/2023 15:20:00.710,0.465,0.621,-0.063
10/4/2023 15:20:00.720,0.465,0.621,-0.063
10/4/2023 15:20:00.730,0.484,0.609,-0.066
10/4/2023 15:20:00.740,0.512,0.578,-0.063
10/4/2023 15:20:00.750,0.527,0.551,-0.055
10/4/2023 15:20:00.760,0.527,0.52,-0.043
10/4/2023 15:20:00.770,0.516,0.484,-0.027
10/4/2023 15:20:00.780,0.496,0.441,-0.012
10/4/2023 15:20:00.790,0.477,0.402,0
10/4/2023 15:20:00.800,0.457,0.375,0.004
10/4/2023 15:20:00.810,0.438,0.355,0.008
10/4/2023 15:20:00.820,0.426,0.352,0.02
10/4/2023 15:20:00.830,0.422,0.344,0.055
10/4/2023 15:20:00.840,0.441,0.336,0.102
10/4/2023 15:20:00.850,0.516,0.305,0.129
10/4/2023 15:20:00.860,0.629,0.234,0.152
10/4/2023 15:20:00.870,0.785,0.18,0.211
10/4/2023 15:20:00.880,0.969,0.215,0.281
10/4/2023 15:20:00.890,1.164,0.313,0.344
10/4/2023 15:20:00.900,1.371,0.402,0.43
10/4/2023 15:20:00.910,1.668,0.441,0.57
10/4/2023 15:20:00.920,2.098,0.391,0.695
10/4/2023 15:20:00.930,2.66,0.293,0.734
10/4/2023 15:20:00.940,3.305,0.316,0.73
10/4/2023 15:20:00.950,3.75,0.504,0.789
10/4/2023 15:20:00.960,4.004,0.684,0.922
10/4/2023 15:20:00.970,4.301,0.82,1.082
10/4/2023 15:20:00.980,4.594,0.98,1.238
10/4/2023 15:20:00.990,4.902,1.09,1.375
10/4/2023 15:20:01.000,5.305,1.086,1.395
10/4/2023 15:20:01.010,5.68,0.992,1.305
10/4/2023 15:20:01.020,5.781,0.906,1.211
10/4/2023 15:20:01.030,5.559,0.781,1.133
10/4/2023 15:20:01.040,5.102,0.574,1.051
10/4/2023 15:20:01.050,4.508,0.344,0.973
10/4/2023 15:20:01.060,3.875,0.117,0.895
10/4/2023 15:20:01.070,3.285,-0.094,0.793
10/4/2023 15:20:01.080,2.734,-0.297,0.68
10/4/2023 15:20:01.090,2.219,-0.484,0.582
10/4/2023 15:20:01.100,1.746,-0.641,0.473
10/4/2023 15:20:01.110,1.34,-0.711,0.32
10/4/2023 15:20:01.120,0.988,-0.723,0.102
10/4/2023 15:20:01.130,0.703,-0.734,-0.148
10/4/2023 15:20:01.140,0.469,-0.77,-0.371
10/4/2023 15:20:01.150,0.219,-0.836,-0.531
10/4/2023 15:20:01.160,-0.047,-0.891,-0.648
10/4/2023 15:20:01.170,-0.242,-0.918,-0.754
10/4/2023 15:20:01.180,-0.348,-0.91,-0.895
10/4/2023 15:20:01.190,-0.344,-0.863,-1.012
10/4/2023 15:20:01.200,-0.316,-0.824,-1.098
10/4/2023 15:20:01.210,-0.363,-0.805,-1.102
10/4/2023 15:20:01.220,-0.473,-0.789,-1.105
10/4/2023 15:20:01.230,-0.551,-0.754,-1.133
10/4/2023 15:20:01.240,-0.57,-0.703,-1.16
10/4/2023 15:20:01.250,-0.563,-0.664,-1.18
10/4/2023 15:20:01.260,-0.539,-0.633,-1.195
10/4/2023 15:20:01.270,-0.453,-0.59,-1.207
10/4/2023 15:20:01.280,-0.281,-0.504,-1.191
10/4/2023 15:20:01.290,-0.117,-0.414,-1.148
10/4/2023 15:20:01.300,-0.023,-0.324,-1.082
10/4/2023 15:20:01.310,-0.023,-0.258,-0.98
10/4/2023 15:20:01.320,-0.086,-0.234,-0.859
10/4/2023 15:20:01.330,-0.141,-0.242,-0.742
10/4/2023 15:20:01.340,-0.18,-0.227,-0.629
10/4/2023 15:20:01.350,-0.211,-0.176,-0.535
10/4/2023 15:20:01.360,-0.258,-0.105,-0.492
10/4/2023 15:20:01.370,-0.281,-0.02,-0.461
10/4/2023 15:20:01.380,-0.254,0.098,-0.379
10/4/2023 15:20:01.390,-0.156,0.313,-0.215
10/4/2023 15:20:01.400,-0.051,0.676,0.035
10/4/2023 15:20:01.410,0.004,1.129,0.293
10/4/2023 15:20:01.420,0.051,1.547,0.449
10/4/2023 15:20:01.430,0.094,1.824,0.418
10/4/2023 15:20:01.440,0.176,2.172,0.477
10/4/2023 15:20:01.450,0.328,2.754,0.52
10/4/2023 15:20:01.460,0.539,3.477,0.512
10/4/2023 15:20:01.470,0.77,4.102,0.648
10/4/2023 15:20:01.480,1.078,4.535,0.961
10/4/2023 15:20:01.490,1.363,4.484,1.301
10/4/2023 15:20:01.500,1.5,4.035,1.523
10/4/2023 15:20:01.510,1.535,3.469,1.582
10/4/2023 15:20:01.520,1.504,2.973,1.516
10/4/2023 15:20:01.530,1.469,2.57,1.457
10/4/2023 15:20:01.540,1.488,2.336,1.488
10/4/2023 15:20:01.550,1.625,2.441,1.535
10/4/2023 15:20:01.560,1.809,2.766,1.543
10/4/2023 15:20:01.570,1.891,2.945,1.441
10/4/2023 15:20:01.580,1.855,2.898,1.277
10/4/2023 15:20:01.590,1.738,2.703,1.121
10/4/2023 15:20:01.600,1.555,2.391,0.984
10/4/2023 15:20:01.610,1.332,2.035,0.852
10/4/2023 15:20:01.620,1.113,1.715,0.695
10/4/2023 15:20:01.630,0.898,1.438,0.543
10/4/2023 15:20:01.640,0.688,1.203,0.402
10/4/2023 15:20:01.650,0.496,1.008,0.285
10/4/2023 15:20:01.660,0.344,0.848,0.191
10/4/2023 15:20:01.670,0.223,0.68,0.117
10/4/2023 15:20:01.680,0.125,0.508,0.051
10/4/2023 15:20:01.690,0.082,0.348,-0.016
10/4/2023 15:20:01.700,0.086,0.203,-0.105
10/4/2023 15:20:01.710,0.07,0.047,-0.207
10/4/2023 15:20:01.720,-0.016,-0.125,-0.289
10/4/2023 15:20:01.730,-0.172,-0.309,-0.363
10/4/2023 15:20:01.740,-0.348,-0.477,-0.434
10/4/2023 15:20:01.750,-0.469,-0.609,-0.5
10/4/2023 15:20:01.760,-0.496,-0.695,-0.52
10/4/2023 15:20:01.770,-0.492,-0.727,-0.512
10/4/2023 15:20:01.780,-0.48,-0.715,-0.496
10/4/2023 15:20:01.790,-0.488,-0.68,-0.461
10/4/2023 15:20:01.800,-0.5,-0.617,-0.422
10/4/2023 15:20:01.810,-0.477,-0.535,-0.379
10/4/2023 15:20:01.820,-0.41,-0.441,-0.344
10/4/2023 15:20:01.830,-0.313,-0.344,-0.336
10/4/2023 15:20:01.840,-0.219,-0.27,-0.383
10/4/2023 15:20:01.850,-0.133,-0.211,-0.453
10/4/2023 15:20:01.860,-0.043,-0.145,-0.52
10/4/2023 15:20:01.870,0.043,-0.066,-0.566
10/4/2023 15:20:01.880,0.113,0.031,-0.578
10/4/2023 15:20:01.890,0.133,0.141,-0.547
10/4/2023 15:20:01.900,0.102,0.254,-0.484
10/4/2023 15:20:01.910,0.027,0.344,-0.398
10/4/2023 15:20:01.920,-0.043,0.387,-0.289
10/4/2023 15:20:01.930,-0.102,0.395,-0.219
10/4/2023 15:20:01.940,-0.164,0.395,-0.211
10/4/2023 15:20:01.950,-0.238,0.375,-0.211
10/4/2023 15:20:01.960,-0.301,0.375,-0.172
10/4/2023 15:20:01.970,-0.297,0.512,-0.082
10/4/2023 15:20:01.980,-0.238,0.805,-0.012
10/4/2023 15:20:01.990,-0.188,1.184,0.043
10/4/2023 15:20:02.000,-0.152,1.539,0.082
10/4/2023 15:20:02.010,-0.121,1.742,0.078
10/4/2023 15:20:02.020,-0.086,1.906,0.191
10/4/2023 15:20:02.030,0.055,2.27,0.574
10/4/2023 15:20:02.040,0.316,2.719,0.918
10/4/2023 15:20:02.050,0.594,3.223,1.156
10/4/2023 15:20:02.060,0.891,3.934,1.273
10/4/2023 15:20:02.070,1.199,4.594,1.301
10/4/2023 15:20:02.080,1.453,4.82,1.398
10/4/2023 15:20:02.090,1.617,4.449,1.523
10/4/2023 15:20:02.100,1.738,3.762,1.566
10/4/2023 15:20:02.110,1.832,3.172,1.57
10/4/2023 15:20:02.120,1.91,2.82,1.605
10/4/2023 15:20:02.130,1.988,2.734,1.652
10/4/2023 15:20:02.140,2.102,2.863,1.621
10/4/2023 15:20:02.150,2.176,2.973,1.5
10/4/2023 15:20:02.160,2.18,2.895,1.293
10/4/2023 15:20:02.170,2.121,2.602,1.039
10/4/2023 15:20:02.180,1.949,2.18,0.777
10/4/2023 15:20:02.190,1.641,1.699,0.555
10/4/2023 15:20:02.200,1.273,1.242,0.391
10/4/2023 15:20:02.210,0.926,0.844,0.262
10/4/2023 15:20:02.220,0.656,0.488,0.086
10/4/2023 15:20:02.230,0.445,0.168,-0.102
10/4/2023 15:20:02.240,0.273,-0.121,-0.234
10/4/2023 15:20:02.250,0.063,-0.359,-0.332
10/4/2023 15:20:02.260,-0.195,-0.539,-0.391
10/4/2023 15:20:02.270,-0.441,-0.676,-0.461
10/4/2023 15:20:02.280,-0.602,-0.773,-0.609
10/4/2023 15:20:02.290,-0.738,-0.883,-0.742
10/4/2023 15:20:02.300,-0.848,-0.984,-0.863
10/4/2023 15:20:02.310,-0.91,-1.039,-0.953
10/4/2023 15:20:02.320,-0.914,-0.996,-0.988
10/4/2023 15:20:02.330,-0.867,-0.852,-0.961
10/4/2023 15:20:02.340,-0.789,-0.637,-0.859
10/4/2023 15:20:02.350,-0.695,-0.449,-0.73
10/4/2023 15:20:02.360,-0.578,-0.328,-0.633
10/4/2023 15:20:02.370,-0.445,-0.289,-0.578
10/4/2023 15:20:02.380,-0.313,-0.281,-0.543
10/4/2023 15:20:02.390,-0.199,-0.242,-0.488
10/4/2023 15:20:02.400,-0.145,-0.18,-0.414
10/4/2023 15:20:02.410,-0.121,-0.098,-0.324
10/4/2023 15:20:02.420,-0.113,-0.035,-0.211
10/4/2023 15:20:02.430,-0.07,0.008,-0.129
10/4/2023 15:20:02.440,0.031,0.031,-0.066
10/4/2023 15:20:02.450,0.188,0.039,0.012
10/4/2023 15:20:02.460,0.344,0.059,0.074
10/4/2023 15:20:02.470,0.449,0.172,0.145
10/4/2023 15:20:02.480,0.512,0.406,0.219
10/4/2023 15:20:02.490,0.547,0.703,0.293
10/4/2023 15:20:02.500,0.551,0.969,0.387
10/4/2023 15:20:02.510,0.559,1.094,0.535
10/4/2023 15:20:02.520,0.547,1.023,0.645
10/4/2023 15:20:02.530,0.527,0.871,0.727
10/4/2023 15:20:02.540,0.5,0.801,0.836
10/4/2023 15:20:02.550,0.445,0.816,0.914
10/4/2023 15:20:02.560,0.391,1,0.938
10/4/2023 15:20:02.570,0.398,1.395,1.047
10/4/2023 15:20:02.580,0.457,1.965,1.188
10/4/2023 15:20:02.590,0.566,2.555,1.273
10/4/2023 15:20:02.600,0.902,3.137,1.402
10/4/2023 15:20:02.610,1.285,3.473,1.531
10/4/2023 15:20:02.620,1.48,3.398,1.594
10/4/2023 15:20:02.630,1.5,3.164,1.609
10/4/2023 15:20:02.640,1.445,2.977,1.602
10/4/2023 15:20:02.650,1.418,2.93,1.586
10/4/2023 15:20:02.660,1.492,2.992,1.527
10/4/2023 15:20:02.670,1.641,3.078,1.43
10/4/2023 15:20:02.680,1.742,3.07,1.309
10/4/2023 15:20:02.690,1.719,2.938,1.176
10/4/2023 15:20:02.700,1.578,2.68,1.051
10/4/2023 15:20:02.710,1.355,2.313,0.922
10/4/2023 15:20:02.720,1.117,1.906,0.789
10/4/2023 15:20:02.730,0.883,1.512,0.641
10/4/2023 15:20:02.740,0.688,1.172,0.473
10/4/2023 15:20:02.750,0.543,0.871,0.309
10/4/2023 15:20:02.760,0.445,0.582,0.18
10/4/2023 15:20:02.770,0.367,0.285,0.051
10/4/2023 15:20:02.780,0.277,-0.027,-0.082
10/4/2023 15:20:02.790,0.164,-0.32,-0.199
10/4/2023 15:20:02.800,0.035,-0.551,-0.281
10/4/2023 15:20:02.810,-0.098,-0.715,-0.348
10/4/2023 15:20:02.820,-0.227,-0.785,-0.41
10/4/2023 15:20:02.830,-0.336,-0.789,-0.441
10/4/2023 15:20:02.840,-0.422,-0.77,-0.453
10/4/2023 15:20:02.850,-0.484,-0.73,-0.453
10/4/2023 15:20:02.860,-0.527,-0.668,-0.441
10/4/2023 15:20:02.870,-0.531,-0.574,-0.402
10/4/2023 15:20:02.880,-0.512,-0.469,-0.352
10/4/2023 15:20:02.890,-0.48,-0.371,-0.297
10/4/2023 15:20:02.900,-0.438,-0.27,-0.25
10/4/2023 15:20:02.910,-0.371,-0.172,-0.207
10/4/2023 15:20:02.920,-0.293,-0.086,-0.18
10/4/2023 15:20:02.930,-0.203,-0.02,-0.18
10/4/2023 15:20:02.940,-0.125,0.027,-0.195
10/4/2023 15:20:02.950,-0.078,0.055,-0.215
10/4/2023 15:20:02.960,-0.059,0.074,-0.242
10/4/2023 15:20:02.970,-0.055,0.113,-0.258
10/4/2023 15:20:02.980,-0.043,0.188,-0.238
10/4/2023 15:20:02.990,-0.02,0.285,-0.203
10/4/2023 15:20:03.000,0.004,0.379,-0.145
10/4/2023 15:20:03.010,0.012,0.422,-0.098
10/4/2023 15:20:03.020,-0.012,0.434,-0.082
10/4/2023 15:20:03.030,-0.043,0.426,-0.074
10/4/2023 15:20:03.040,-0.059,0.422,-0.074
10/4/2023 15:20:03.050,-0.063,0.402,-0.066
10/4/2023 15:20:03.060,-0.051,0.406,-0.012
10/4/2023 15:20:03.070,-0.02,0.5,0.102
10/4/2023 15:20:03.080,0.027,0.621,0.227
10/4/2023 15:20:03.090,0.07,0.777,0.359
10/4/2023 15:20:03.100,0.082,1.043,0.484
10/4/2023 15:20:03.110,0.109,1.469,0.707
10/4/2023 15:20:03.120,0.273,2.105,1.055
10/4/2023 15:20:03.130,0.582,2.785,1.137
10/4/2023 15:20:03.140,0.82,3.523,1.125
10/4/2023 15:20:03.150,1.09,4.457,1.309
10/4/2023 15:20:03.160,1.387,5.043,1.453
10/4/2023 15:20:03.170,1.57,5.02,1.492
10/4/2023 15:20:03.180,1.598,4.715,1.488
10/4/2023 15:20:03.190,1.582,4.324,1.41
10/4/2023 15:20:03.200,1.605,3.949,1.293
10/4/2023 15:20:03.210,1.602,3.52,1.172
10/4/2023 15:20:03.220,1.496,3.023,1.051
10/4/2023 15:20:03.230,1.301,2.488,0.918
10/4/2023 15:20:03.240,1.043,1.984,0.789
10/4/2023 15:20:03.250,0.777,1.551,0.656
10/4/2023 15:20:03.260,0.559,1.156,0.512
10/4/2023 15:20:03.270,0.379,0.785,0.348
10/4/2023 15:20:03.280,0.227,0.43,0.145
10/4/2023 15:20:03.290,0.066,0.121,-0.078
10/4/2023 15:20:03.300,-0.141,-0.129,-0.25
10/4/2023 15:20:03.310,-0.383,-0.316,-0.363
10/4/2023 15:20:03.320,-0.586,-0.465,-0.469
10/4/2023 15:20:03.330,-0.703,-0.594,-0.566
10/4/2023 15:20:03.340,-0.715,-0.691,-0.629
10/4/2023 15:20:03.350,-0.613,-0.695,-0.656
10/4/2023 15:20:03.360,-0.59,-0.68,-0.641
10/4/2023 15:20:03.370,-0.598,-0.609,-0.629
10/4/2023 15:20:03.380,-0.613,-0.523,-0.633
10/4/2023 15:20:03.390,-0.594,-0.469,-0.613
10/4/2023 15:20:03.400,-0.531,-0.426,-0.59
10/4/2023 15:20:03.410,-0.438,-0.375,-0.547
10/4/2023 15:20:03.420,-0.328,-0.313,-0.504
10/4/2023 15:20:03.430,-0.246,-0.246,-0.473
10/4/2023 15:20:03.440,-0.195,-0.199,-0.445
10/4/2023 15:20:03.450,-0.152,-0.152,-0.414
10/4/2023 15:20:03.460,-0.105,-0.121,-0.387
10/4/2023 15:20:03.470,-0.059,-0.094,-0.348
10/4/2023 15:20:03.480,-0.027,-0.07,-0.281
10/4/2023 15:20:03.490,-0.031,-0.043,-0.219
10/4/2023 15:20:03.500,-0.063,-0.016,-0.168
10/4/2023 15:20:03.510,-0.07,0.012,-0.129
10/4/2023 15:20:03.520,-0.051,0.059,-0.098
10/4/2023 15:20:03.530,0,0.121,-0.066
10/4/2023 15:20:03.540,0.055,0.203,-0.047
10/4/2023 15:20:03.550,0.086,0.297,-0.031
10/4/2023 15:20:03.560,0.094,0.418,0.031
10/4/2023 15:20:03.570,0.113,0.555,0.273
10/4/2023 15:20:03.580,0.207,0.77,0.684
10/4/2023 15:20:03.590,0.379,1.133,1.125
10/4/2023 15:20:03.600,0.551,1.527,1.34
10/4/2023 15:20:03.610,0.602,1.766,1.434
10/4/2023 15:20:03.620,0.57,1.949,1.793
10/4/2023 15:20:03.630,0.52,2.098,2.195
10/4/2023 15:20:03.640,0.457,2.348,2.41
10/4/2023 15:20:03.650,0.508,2.934,2.672
10/4/2023 15:20:03.660,0.797,3.48,2.949
10/4/2023 15:20:03.670,1.09,3.438,3.07
10/4/2023 15:20:03.680,1.09,2.926,3.02
10/4/2023 15:20:03.690,0.867,2.402,2.871
10/4/2023 15:20:03.700,0.621,2.141,2.715
10/4/2023 15:20:03.710,0.5,2.227,2.633
10/4/2023 15:20:03.720,0.543,2.402,2.539
10/4/2023 15:20:03.730,0.621,2.52,2.469
10/4/2023 15:20:03.740,0.645,2.496,2.426
10/4/2023 15:20:03.750,0.641,2.313,2.355
10/4/2023 15:20:03.760,0.637,2.023,2.242
10/4/2023 15:20:03.770,0.629,1.699,2.074
10/4/2023 15:20:03.780,0.633,1.383,1.836
10/4/2023 15:20:03.790,0.645,1.16,1.523
10/4/2023 15:20:03.800,0.656,1.055,1.164
10/4/2023 15:20:03.810,0.66,0.996,0.801
10/4/2023 15:20:03.820,0.648,0.867,0.434
10/4/2023 15:20:03.830,0.594,0.652,0
10/4/2023 15:20:03.840,0.508,0.359,-0.473
10/4/2023 15:20:03.850,0.387,0.07,-0.871
10/4/2023 15:20:03.860,0.27,-0.207,-1.121
10/4/2023 15:20:03.870,0.145,-0.473,-1.254
10/4/2023 15:20:03.880,0.016,-0.645,-1.363
10/4/2023 15:20:03.890,-0.117,-0.648,-1.473
10/4/2023 15:20:03.900,-0.227,-0.516,-1.547
10/4/2023 15:20:03.910,-0.289,-0.348,-1.566
10/4/2023 15:20:03.920,-0.285,-0.211,-1.48
10/4/2023 15:20:03.930,-0.238,-0.148,-1.332
10/4/2023 15:20:03.940,-0.172,-0.184,-1.18
10/4/2023 15:20:03.950,-0.102,-0.262,-1.047
10/4/2023 15:20:03.960,-0.008,-0.289,-0.926
10/4/2023 15:20:03.970,0.105,-0.238,-0.824
10/4/2023 15:20:03.980,0.227,-0.121,-0.727
10/4/2023 15:20:03.990,0.336,0,-0.625
10/4/2023 15:20:04.000,0.426,0.086,-0.516
10/4/2023 15:20:04.010,0.5,0.129,-0.473
10/4/2023 15:20:04.020,0.543,0.172,-0.473
10/4/2023 15:20:04.030,0.574,0.215,-0.457
10/4/2023 15:20:04.040,0.59,0.227,-0.434
10/4/2023 15:20:04.050,0.586,0.227,-0.402
10/4/2023 15:20:04.060,0.563,0.223,-0.398
10/4/2023 15:20:04.070,0.574,0.227,-0.406
10/4/2023 15:20:04.080,0.648,0.254,-0.34
10/4/2023 15:20:04.090,0.758,0.289,-0.242
10/4/2023 15:20:04.100,0.855,0.313,-0.16
10/4/2023 15:20:04.110,0.891,0.273,-0.094
10/4/2023 15:20:04.120,0.832,0.172,-0.055
10/4/2023 15:20:04.130,0.723,0.078,0.023
10/4/2023 15:20:04.140,0.664,0.023,0.207
10/4/2023 15:20:04.150,0.93,0.207,0.574
10/4/2023 15:20:04.160,1.633,0.539,1.074
10/4/2023 15:20:04.170,2.469,1.012,1.699
10/4/2023 15:20:04.180,3.172,1.645,2.461
10/4/2023 15:20:04.190,3.73,1.996,3.156
10/4/2023 15:20:04.200,4.031,2.129,3.559
10/4/2023 15:20:04.210,4.012,2.078,3.527
10/4/2023 15:20:04.220,3.859,1.984,3.387
10/4/2023 15:20:04.230,3.727,1.875,3.316
10/4/2023 15:20:04.240,3.492,1.785,3.211
10/4/2023 15:20:04.250,3.148,1.758,2.957
10/4/2023 15:20:04.260,2.727,1.816,2.551
10/4/2023 15:20:04.270,2.262,1.813,2.074
10/4/2023 15:20:04.280,1.762,1.676,1.559
10/4/2023 15:20:04.290,1.262,1.41,1.051
10/4/2023 15:20:04.300,0.766,1.078,0.645
10/4/2023 15:20:04.310,0.305,0.762,0.363
10/4/2023 15:20:04.320,-0.16,0.531,0.145
10/4/2023 15:20:04.330,-0.539,0.438,-0.094
10/4/2023 15:20:04.340,-0.73,0.516,-0.383
10/4/2023 15:20:04.350,-0.727,0.746,-0.566
10/4/2023 15:20:04.360,-0.676,0.961,-0.641
10/4/2023 15:20:04.370,-0.617,1.055,-0.617
10/4/2023 15:20:04.380,-0.566,1.004,-0.539
10/4/2023 15:20:04.390,-0.566,0.793,-0.461
10/4/2023 15:20:04.400,-0.547,0.547,-0.402
10/4/2023 15:20:04.410,-0.434,0.352,-0.336
10/4/2023 15:20:04.420,-0.234,0.266,-0.242
10/4/2023 15:20:04.430,-0.016,0.258,-0.148
10/4/2023 15:20:04.440,0.125,0.301,-0.094
10/4/2023 15:20:04.450,0.148,0.371,-0.055
10/4/2023 15:20:04.460,0.152,0.523,-0.043
10/4/2023 15:20:04.470,0.227,0.77,-0.039
10/4/2023 15:20:04.480,0.352,0.969,-0.09
10/4/2023 15:20:04.490,0.469,1.02,-0.164
10/4/2023 15:20:04.500,0.508,0.969,-0.191
10/4/2023 15:20:04.510,0.496,0.852,-0.184
10/4/2023 15:20:04.520,0.441,0.699,-0.172
10/4/2023 15:20:04.530,0.359,0.531,-0.133
10/4/2023 15:20:04.540,0.27,0.398,-0.078
10/4/2023 15:20:04.550,0.191,0.348,-0.035
10/4/2023 15:20:04.560,0.176,0.395,0.004
10/4/2023 15:20:04.570,0.211,0.453,0.031
10/4/2023 15:20:04.580,0.242,0.449,0.063
10/4/2023 15:20:04.590,0.246,0.371,0.117
10/4/2023 15:20:04.600,0.277,0.309,0.195
10/4/2023 15:20:04.610,0.379,0.285,0.246
10/4/2023 15:20:04.620,0.543,0.309,0.27
10/4/2023 15:20:04.630,0.738,0.398,0.32
10/4/2023 15:20:04.640,1.012,0.605,0.375
10/4/2023 15:20:04.650,1.305,0.902,0.402
10/4/2023 15:20:04.660,1.52,1.281,0.535
10/4/2023 15:20:04.670,1.699,1.633,0.711
10/4/2023 15:20:04.680,2.063,2.098,0.906
10/4/2023 15:20:04.690,2.586,2.551,0.988
10/4/2023 15:20:04.700,2.852,2.68,0.934
10/4/2023 15:20:04.710,2.762,2.676,0.906
10/4/2023 15:20:04.720,2.758,2.805,0.883
10/4/2023 15:20:04.730,2.883,2.863,0.961
10/4/2023 15:20:04.740,3.059,2.723,1.023
10/4/2023 15:20:04.750,3.191,2.527,0.973
10/4/2023 15:20:04.760,3.074,2.316,0.813
10/4/2023 15:20:04.770,2.746,2.09,0.672
10/4/2023 15:20:04.780,2.328,1.828,0.57
10/4/2023 15:20:04.790,1.91,1.52,0.496
10/4/2023 15:20:04.800,1.512,1.184,0.438
10/4/2023 15:20:04.810,1.168,0.844,0.391
10/4/2023 15:20:04.820,0.879,0.516,0.344
10/4/2023 15:20:04.830,0.641,0.246,0.285
10/4/2023 15:20:04.840,0.426,0.023,0.227
10/4/2023 15:20:04.850,0.23,-0.145,0.176
10/4/2023 15:20:04.860,0.047,-0.262,0.125
10/4/2023 15:20:04.870,-0.098,-0.375,0.086
10/4/2023 15:20:04.880,-0.215,-0.52,0.043
10/4/2023 15:20:04.890,-0.285,-0.68,-0.008
10/4/2023 15:20:04.900,-0.316,-0.816,-0.055
10/4/2023 15:20:04.910,-0.336,-0.891,-0.082
10/4/2023 15:20:04.920,-0.375,-0.891,-0.109
10/4/2023 15:20:04.930,-0.438,-0.836,-0.125
10/4/2023 15:20:04.940,-0.496,-0.738,-0.094
10/4/2023 15:20:04.950,-0.504,-0.645,-0.059
10/4/2023 15:20:04.960,-0.449,-0.574,-0.059
10/4/2023 15:20:04.970,-0.352,-0.523,-0.086
10/4/2023 15:20:04.980,-0.262,-0.473,-0.137
10/4/2023 15:20:04.990,-0.219,-0.41,-0.188
10/4/2023 15:20:05.000,-0.203,-0.344,-0.227
10/4/2023 15:20:05.010,-0.172,-0.285,-0.246
10/4/2023 15:20:05.020,-0.121,-0.23,-0.254
10/4/2023 15:20:05.030,-0.074,-0.184,-0.258
10/4/2023 15:20:05.040,-0.035,-0.133,-0.27
10/4/2023 15:20:05.050,-0.023,-0.086,-0.27
10/4/2023 15:20:05.060,-0.031,-0.066,-0.262
10/4/2023 15:20:05.070,-0.035,-0.063,-0.262
10/4/2023 15:20:05.080,-0.035,-0.074,-0.266
10/4/2023 15:20:05.090,-0.043,-0.07,-0.277
10/4/2023 15:20:05.100,-0.047,-0.059,-0.277
10/4/2023 15:20:05.110,-0.059,-0.051,-0.242
10/4/2023 15:20:05.120,-0.043,-0.02,-0.18
10/4/2023 15:20:05.130,0.004,0.047,-0.094
10/4/2023 15:20:05.140,0.098,0.176,0.012
10/4/2023 15:20:05.150,0.289,0.43,0.176
10/4/2023 15:20:05.160,0.602,0.801,0.367
10/4/2023 15:20:05.170,1.016,1.336,0.449
10/4/2023 15:20:05.180,1.496,2.234,0.52
10/4/2023 15:20:05.190,2.047,3.359,0.566
10/4/2023 15:20:05.200,2.867,4.301,0.59
10/4/2023 15:20:05.210,3.805,5.043,0.488
10/4/2023 15:20:05.220,3.949,5.16,0.469
10/4/2023 15:20:05.230,3.309,4.734,0.598
10/4/2023 15:20:05.240,2.813,4.301,0.734
10/4/2023 15:20:05.250,2.57,3.797,0.855
10/4/2023 15:20:05.260,2.555,3.309,0.855
10/4/2023 15:20:05.270,2.563,2.895,0.695
10/4/2023 15:20:05.280,2.395,2.535,0.52
10/4/2023 15:20:05.290,2.074,2.172,0.426
10/4/2023 15:20:05.300,1.723,1.758,0.383
10/4/2023 15:20:05.310,1.402,1.332,0.332
10/4/2023 15:20:05.320,1.105,0.938,0.258
10/4/2023 15:20:05.330,0.832,0.605,0.148
10/4/2023 15:20:05.340,0.578,0.316,0.035
10/4/2023 15:20:05.350,0.348,0.059,-0.051
10/4/2023 15:20:05.360,0.137,-0.188,-0.133
10/4/2023 15:20:05.370,-0.063,-0.406,-0.211
10/4/2023 15:20:05.380,-0.277,-0.59,-0.25
10/4/2023 15:20:05.390,-0.492,-0.699,-0.273
10/4/2023 15:20:05.400,-0.637,-0.727,-0.332
10/4/2023 15:20:05.410,-0.656,-0.695,-0.41
10/4/2023 15:20:05.420,-0.57,-0.637,-0.453
10/4/2023 15:20:05.430,-0.449,-0.566,-0.457
10/4/2023 15:20:05.440,-0.348,-0.473,-0.457
10/4/2023 15:20:05.450,-0.289,-0.367,-0.465
10/4/2023 15:20:05.460,-0.238,-0.277,-0.48
10/4/2023 15:20:05.470,-0.191,-0.211,-0.488
10/4/2023 15:20:05.480,-0.129,-0.16,-0.492
10/4/2023 15:20:05.490,-0.066,-0.102,-0.496
10/4/2023 15:20:05.500,-0.012,-0.027,-0.484
10/4/2023 15:20:05.510,0.078,0.047,-0.473
10/4/2023 15:20:05.520,0.152,0.09,-0.477
10/4/2023 15:20:05.530,0.207,0.082,-0.484
10/4/2023 15:20:05.540,0.238,0.059,-0.488
10/4/2023 15:20:05.550,0.227,0.035,-0.492
10/4/2023 15:20:05.560,0.199,0.02,-0.496
10/4/2023 15:20:05.570,0.168,0,-0.5
10/4/2023 15:20:05.580,0.145,-0.02,-0.504
10/4/2023 15:20:05.590,0.117,-0.047,-0.5
10/4/2023 15:20:05.600,0.066,-0.07,-0.492
10/4/2023 15:20:05.610,0.008,-0.086,-0.469
10/4/2023 15:20:05.620,-0.039,-0.086,-0.441
10/4/2023 15:20:05.630,-0.047,-0.051,-0.398
10/4/2023 15:20:05.640,-0.008,0,-0.309
10/4/2023 15:20:05.650,0.059,0.047,-0.176
10/4/2023 15:20:05.660,0.129,0.047,-0.055
10/4/2023 15:20:05.670,0.285,0.266,-0.023
10/4/2023 15:20:05.680,0.645,0.813,0.145
10/4/2023 15:20:05.690,1.176,1.438,0.172
10/4/2023 15:20:05.700,1.871,2.215,0.066
10/4/2023 15:20:05.710,2.363,3.035,0.055
10/4/2023 15:20:05.720,2.535,3.656,0.215
10/4/2023 15:20:05.730,2.602,4.063,0.488
10/4/2023 15:20:05.740,2.516,4.133,0.762
10/4/2023 15:20:05.750,2.461,3.98,0.988
10/4/2023 15:20:05.760,2.461,3.637,1.113
10/4/2023 15:20:05.770,2.449,3.195,1.168
10/4/2023 15:20:05.780,2.27,2.742,1.145
10/4/2023 15:20:05.790,1.934,2.234,1.074
10/4/2023 15:20:05.800,1.547,1.707,0.984
10/4/2023 15:20:05.810,1.195,1.285,0.91
10/4/2023 15:20:05.820,0.906,0.988,0.879
10/4/2023 15:20:05.830,0.719,0.777,0.828
10/4/2023 15:20:05.840,0.613,0.609,0.699
10/4/2023 15:20:05.850,0.551,0.496,0.559
10/4/2023 15:20:05.860,0.484,0.426,0.465
10/4/2023 15:20:05.870,0.398,0.344,0.387
10/4/2023 15:20:05.880,0.316,0.277,0.313
10/4/2023 15:20:05.890,0.25,0.246,0.266
10/4/2023 15:20:05.900,0.203,0.223,0.238
10/4/2023 15:20:05.910,0.172,0.18,0.199
10/4/2023 15:20:05.920,0.168,0.125,0.164
10/4/2023 15:20:05.930,0.172,0.082,0.133
10/4/2023 15:20:05.940,0.176,0.055,0.113
10/4/2023 15:20:05.950,0.168,0.039,0.078
10/4/2023 15:20:05.960,0.148,0.031,0.047
10/4/2023 15:20:05.970,0.137,0.043,0.027
10/4/2023 15:20:05.980,0.148,0.074,0.012
10/4/2023 15:20:05.990,0.18,0.129,0.008
10/4/2023 15:20:06.000,0.223,0.215,0.012
10/4/2023 15:20:06.010,0.305,0.336,0.004
10/4/2023 15:20:06.020,0.391,0.504,0.004
10/4/2023 15:20:06.030,0.445,0.637,-0.004
10/4/2023 15:20:06.040,0.441,0.703,-0.012
10/4/2023 15:20:06.050,0.414,0.75,-0.004
10/4/2023 15:20:06.060,0.414,0.789,0.008
10/4/2023 15:20:06.070,0.438,0.805,0.02
10/4/2023 15:20:06.080,0.469,0.816,0.035
10/4/2023 15:20:06.090,0.496,0.848,0.055
10/4/2023 15:20:06.100,0.527,0.969,0.059
10/4/2023 15:20:06.110,0.555,1.148,0.035
10/4/2023 15:20:06.120,0.555,1.301,-0.016
10/4/2023 15:20:06.130,0.531,1.383,-0.078
10/4/2023 15:20:06.140,0.484,1.402,-0.121
10/4/2023 15:20:06.150,0.449,1.391,-0.137
10/4/2023 15:20:06.160,0.438,1.375,-0.113
10/4/2023 15:20:06.170,0.43,1.348,-0.051
10/4/2023 15:20:06.180,0.414,1.305,0.031
10/4/2023 15:20:06.190,0.387,1.258,0.105
10/4/2023 15:20:06.200,0.367,1.215,0.172
10/4/2023 15:20:06.210,0.34,1.172,0.219
10/4/2023 15:20:06.220,0.313,1.152,0.25
10/4/2023 15:20:06.230,0.293,1.164,0.266
10/4/2023 15:20:06.240,0.289,1.199,0.266
10/4/2023 15:20:06.250,0.285,1.207,0.246
10/4/2023 15:20:06.260,0.266,1.172,0.219
10/4/2023 15:20:06.270,0.25,1.121,0.195
10/4/2023 15:20:06.280,0.246,1.082,0.188
10/4/2023 15:20:06.290,0.23,1.059,0.191
10/4/2023 15:20:06.300,0.211,1.043,0.234
10/4/2023 15:20:06.310,0.188,1.027,0.328
10/4/2023 15:20:06.320,0.156,1,0.391
10/4/2023 15:20:06.330,0.133,0.949,0.418
10/4/2023 15:20:06.340,0.129,0.898,0.422
10/4/2023 15:20:06.350,0.137,0.867,0.418
10/4/2023 15:20:06.360,0.156,0.824,0.398
10/4/2023 15:20:06.370,0.176,0.789,0.375
10/4/2023 15:20:06.380,0.195,0.75,0.359
10/4/2023 15:20:06.390,0.203,0.711,0.352
10/4/2023 15:20:06.400,0.199,0.68,0.348
10/4/2023 15:20:06.410,0.203,0.656,0.348
10/4/2023 15:20:06.420,0.238,0.633,0.344
10/4/2023 15:20:06.430,0.316,0.602,0.336
10/4/2023 15:20:06.440,0.383,0.555,0.328
10/4/2023 15:20:06.450,0.414,0.492,0.293
10/4/2023 15:20:06.460,0.383,0.449,0.266
10/4/2023 15:20:06.470,0.352,0.441,0.254
10/4/2023 15:20:06.480,0.344,0.449,0.234
10/4/2023 15:20:06.490,0.395,0.465,0.211
10/4/2023 15:20:06.500,0.461,0.539,0.199
10/4/2023 15:20:06.510,0.551,0.652,0.191
10/4/2023 15:20:06.520,0.582,0.785,0.18
10/4/2023 15:20:06.530,0.578,0.898,0.152
10/4/2023 15:20:06.540,0.555,0.996,0.121
10/4/2023 15:20:06.550,0.543,1.117,0.066
10/4/2023 15:20:06.560,0.543,1.297,0.008
10/4/2023 15:20:06.570,0.535,1.52,-0.035
10/4/2023 15:20:06.580,0.512,1.719,-0.039
10/4/2023 15:20:06.590,0.484,1.844,-0.008
10/4/2023 15:20:06.600,0.469,1.863,0.051
10/4/2023 15:20:06.610,0.441,1.82,0.117
10/4/2023 15:20:06.620,0.434,1.77,0.203
10/4/2023 15:20:06.630,0.422,1.707,0.293
10/4/2023 15:20:06.640,0.426,1.629,0.359
10/4/2023 15:20:06.650,0.445,1.52,0.41
10/4/2023 15:20:06.660,0.477,1.414,0.445
10/4/2023 15:20:06.670,0.527,1.309,0.457
10/4/2023 15:20:06.680,0.574,1.191,0.426
10/4/2023 15:20:06.690,0.609,1.047,0.383
10/4/2023 15:20:06.700,0.609,0.859,0.344
10/4/2023 15:20:06.710,0.586,0.652,0.324
10/4/2023 15:20:06.720,0.539,0.445,0.352
10/4/2023 15:20:06.730,0.477,0.266,0.41
10/4/2023 15:20:06.740,0.43,0.145,0.469
10/4/2023 15:20:06.750,0.406,0.078,0.496
10/4/2023 15:20:06.760,0.398,0.055,0.492
10/4/2023 15:20:06.770,0.383,0.039,0.461
10/4/2023 15:20:06.780,0.371,0.02,0.426
10/4/2023 15:20:06.790,0.367,0.004,0.387
10/4/2023 15:20:06.800,0.363,0.004,0.359
10/4/2023 15:20:06.810,0.363,0.047,0.332
10/4/2023 15:20:06.820,0.367,0.137,0.313
10/4/2023 15:20:06.830,0.387,0.254,0.293
10/4/2023 15:20:06.840,0.422,0.379,0.281
10/4/2023 15:20:06.850,0.465,0.5,0.27
10/4/2023 15:20:06.860,0.484,0.598,0.25
10/4/2023 15:20:06.870,0.496,0.672,0.23
10/4/2023 15:20:06.880,0.5,0.738,0.234
10/4/2023 15:20:06.890,0.496,0.797,0.25
10/4/2023 15:20:06.900,0.484,0.832,0.285
10/4/2023 15:20:06.910,0.453,0.844,0.313
10/4/2023 15:20:06.920,0.422,0.871,0.344
10/4/2023 15:20:06.930,0.395,0.898,0.371
10/4/2023 15:20:06.940,0.375,0.938,0.395
10/4/2023 15:20:06.950,0.363,0.957,0.422
10/4/2023 15:20:06.960,0.352,0.973,0.434
10/4/2023 15:20:06.970,0.336,0.98,0.441
10/4/2023 15:20:06.980,0.313,0.996,0.48
10/4/2023 15:20:06.990,0.313,1.027,0.551
10/4/2023 15:20:07.000,0.309,1.043,0.605
10/4/2023 15:20:07.010,0.32,1.051,0.641
10/4/2023 15:20:07.020,0.32,1.055,0.652
10/4/2023 15:20:07.030,0.313,1.055,0.641
10/4/2023 15:20:07.040,0.309,1.063,0.609
10/4/2023 15:20:07.050,0.301,1.074,0.563
10/4/2023 15:20:07.060,0.293,1.078,0.5
10/4/2023 15:20:07.070,0.281,1.074,0.422
10/4/2023 15:20:07.080,0.254,1.055,0.336
10/4/2023 15:20:07.090,0.211,1.012,0.262
10/4/2023 15:20:07.100,0.137,0.938,0.219
10/4/2023 15:20:07.110,0.063,0.84,0.176
10/4/2023 15:20:07.120,0.02,0.727,0.148
10/4/2023 15:20:07.130,0.039,0.66,0.168
10/4/2023 15:20:07.140,0.121,0.645,0.219
10/4/2023 15:20:07.150,0.23,0.668,0.277
10/4/2023 15:20:07.160,0.309,0.676,0.313
10/4/2023 15:20:07.170,0.344,0.656,0.316
10/4/2023 15:20:07.180,0.387,0.613,0.34
10/4/2023 15:20:07.190,0.473,0.578,0.383
10/4/2023 15:20:07.200,0.613,0.559,0.406
10/4/2023 15:20:07.210,0.762,0.512,0.398
10/4/2023 15:20:07.220,0.891,0.453,0.391
10/4/2023 15:20:07.230,1.008,0.445,0.371
10/4/2023 15:20:07.240,1.125,0.512,0.32
10/4/2023 15:20:07.250,1.25,0.598,0.227
10/4/2023 15:20:07.260,1.34,0.645,0.133
10/4/2023 15:20:07.270,1.402,0.648,0.047
10/4/2023 15:20:07.280,1.438,0.625,-0.016
10/4/2023 15:20:07.290,1.461,0.609,-0.066
10/4/2023 15:20:07.300,1.465,0.613,-0.094
10/4/2023 15:20:07.310,1.434,0.637,-0.098
10/4/2023 15:20:07.320,1.367,0.672,-0.07
10/4/2023 15:20:07.330,1.285,0.711,-0.035
10/4/2023 15:20:07.340,1.203,0.727,0.004
10/4/2023 15:20:07.350,1.125,0.707,0.016
10/4/2023 15:20:07.360,1.063,0.66,0.012
10/4/2023 15:20:07.370,1.004,0.582,0.012
10/4/2023 15:20:07.380,0.953,0.504,0.004
10/4/2023 15:20:07.390,0.922,0.43,0
10/4/2023 15:20:07.400,0.922,0.383,-0.012
10/4/2023 15:20:07.410,0.926,0.355,-0.02
10/4/2023 15:20:07.420,0.926,0.332,-0.012
10/4/2023 15:20:07.430,0.934,0.309,0.023
10/4/2023 15:20:07.440,0.965,0.277,0.059
10/4/2023 15:20:07.450,1.031,0.191,0
10/4/2023 15:20:07.460,1.109,0.113,-0.07
10/4/2023 15:20:07.470,1.113,0.066,-0.09
10/4/2023 15:20:07.480,1.035,-0.008,-0.078
10/4/2023 15:20:07.490,0.941,-0.109,-0.051
10/4/2023 15:20:07.500,0.898,-0.223,0
10/4/2023 15:20:07.510,0.941,-0.309,0.047
10/4/2023 15:20:07.520,1.031,-0.355,0.039
10/4/2023 15:20:07.530,1.168,-0.371,-0.027
10/4/2023 15:20:07.540,1.262,-0.379,-0.148
10/4/2023 15:20:07.550,1.25,-0.43,-0.27
10/4/2023 15:20:07.560,1.16,-0.531,-0.332
10/4/2023 15:20:07.570,1.082,-0.605,-0.32
10/4/2023 15:20:07.580,1.082,-0.566,-0.254
10/4/2023 15:20:07.590,1.215,-0.461,-0.207
10/4/2023 15:20:07.600,1.445,-0.32,-0.234
10/4/2023 15:20:07.610,1.625,-0.227,-0.332
10/4/2023 15:20:07.620,1.668,-0.195,-0.445
10/4/2023 15:20:07.630,1.617,-0.113,-0.473
10/4/2023 15:20:07.640,1.531,0.066,-0.379
10/4/2023 15:20:07.650,1.41,0.238,-0.168
10/4/2023 15:20:07.660,1.254,-0.273,0.766
10/4/2023 15:20:07.670,1.688,-0.539,0.641
10/4/2023 15:20:07.680,1.672,0.418,-0.348
10/4/2023 15:20:07.690,1.5,0.969,0.137
10/4/2023 15:20:07.700,1.293,0.676,-0.047
10/4/2023 15:20:07.710,1.285,0.508,-0.305
10/4/2023 15:20:07.720,1.395,0.41,-0.148
10/4/2023 15:20:07.730,1.516,0.066,-0.063
10/4/2023 15:20:07.740,1.578,-0.215,0
10/4/2023 15:20:07.750,1.563,-0.254,0.129
10/4/2023 15:20:07.760,1.477,-0.195,0.141
10/4/2023 15:20:07.770,1.387,-0.086,0.121
10/4/2023 15:20:07.780,1.324,0.043,0.109
10/4/2023 15:20:07.790,1.281,0.16,0.109
10/4/2023 15:20:07.800,1.211,0.266,0.125
10/4/2023 15:20:07.810,1.141,0.313,0.148
10/4/2023 15:20:07.820,1.086,0.297,0.176
10/4/2023 15:20:07.830,1.059,0.266,0.199
10/4/2023 15:20:07.840,1.031,0.266,0.215
10/4/2023 15:20:07.850,1,0.301,0.223
10/4/2023 15:20:07.860,0.949,0.371,0.211
10/4/2023 15:20:07.870,0.902,0.422,0.191
10/4/2023 15:20:07.880,0.871,0.434,0.18
10/4/2023 15:20:07.890,0.863,0.41,0.168
10/4/2023 15:20:07.900,0.855,0.387,0.168
10/4/2023 15:20:07.910,0.848,0.391,0.172
10/4/2023 15:20:07.920,0.84,0.418,0.168
10/4/2023 15:20:07.930,0.844,0.434,0.172
10/4/2023 15:20:07.940,0.863,0.434,0.172
10/4/2023 15:20:07.950,0.883,0.414,0.16
10/4/2023 15:20:07.960,0.879,0.391,0.145
10/4/2023 15:20:07.970,0.879,0.391,0.125
10/4/2023 15:20:07.980,0.883,0.406,0.105
10/4/2023 15:20:07.990,0.91,0.406,0.082
10/4/2023 15:20:08.000,0.949,0.41,0.063
10/4/2023 15:20:08.010,1.035,0.402,0.059
10/4/2023 15:20:08.020,1.109,0.398,0.07
10/4/2023 15:20:08.030,1.18,0.402,0.078
10/4/2023 15:20:08.040,1.246,0.406,0.074
10/4/2023 15:20:08.050,1.313,0.41,0.055
10/4/2023 15:20:08.060,1.367,0.398,0.016
10/4/2023 15:20:08.070,1.426,0.383,-0.012
10/4/2023 15:20:08.080,1.48,0.367,-0.031
10/4/2023 15:20:08.090,1.563,0.371,-0.004
10/4/2023 15:20:08.100,1.676,0.371,0.047
10/4/2023 15:20:08.110,1.766,0.34,0.113
10/4/2023 15:20:08.120,1.801,0.285,0.145
10/4/2023 15:20:08.130,1.777,0.223,0.137
10/4/2023 15:20:08.140,1.734,0.164,0.105
10/4/2023 15:20:08.150,1.703,0.117,0.063
10/4/2023 15:20:08.160,1.699,0.078,0.023
10/4/2023 15:20:08.170,1.723,0.059,0.004
10/4/2023 15:20:08.180,1.758,0.051,0.004
10/4/2023 15:20:08.190,1.793,0.039,0.004
10/4/2023 15:20:08.200,1.816,0.043,-0.02
10/4/2023 15:20:08.210,1.855,0.031,-0.031
10/4/2023 15:20:08.220,1.883,0.039,-0.07
10/4/2023 15:20:08.230,1.883,0.078,-0.109
10/4/2023 15:20:08.240,1.863,0.07,-0.145
10/4/2023 15:20:08.250,1.828,0.027,-0.164
10/4/2023 15:20:08.260,1.781,0,-0.164
10/4/2023 15:20:08.270,1.711,-0.008,-0.16
10/4/2023 15:20:08.280,1.633,0,-0.16
10/4/2023 15:20:08.290,1.535,-0.012,-0.176
10/4/2023 15:20:08.300,1.434,-0.051,-0.195
10/4/2023 15:20:08.310,1.336,-0.086,-0.199
10/4/2023 15:20:08.320,1.234,-0.094,-0.184
10/4/2023 15:20:08.330,1.133,-0.086,-0.148
10/4/2023 15:20:08.340,1.039,-0.09,-0.109
10/4/2023 15:20:08.350,0.965,-0.121,-0.086
10/4/2023 15:20:08.360,0.906,-0.148,-0.074
10/4/2023 15:20:08.370,0.875,-0.16,-0.074
10/4/2023 15:20:08.380,0.855,-0.168,-0.082
10/4/2023 15:20:08.390,0.836,-0.172,-0.098
10/4/2023 15:20:08.400,0.813,-0.191,-0.105
10/4/2023 15:20:08.410,0.789,-0.211,-0.09
10/4/2023 15:20:08.420,0.773,-0.234,-0.086
10/4/2023 15:20:08.430,0.754,-0.258,-0.09
10/4/2023 15:20:08.440,0.727,-0.281,-0.102
10/4/2023 15:20:08.450,0.703,-0.301,-0.113
10/4/2023 15:20:08.460,0.691,-0.32,-0.133
10/4/2023 15:20:08.470,0.695,-0.336,-0.145
10/4/2023 15:20:08.480,0.707,-0.363,-0.164
10/4/2023 15:20:08.490,0.758,-0.379,-0.191
10/4/2023 15:20:08.500,0.801,-0.359,-0.207
10/4/2023 15:20:08.510,0.824,-0.336,-0.211
10/4/2023 15:20:08.520,0.785,-0.32,-0.219
10/4/2023 15:20:08.530,0.781,-0.324,-0.215
10/4/2023 15:20:08.540,0.82,-0.316,-0.211
10/4/2023 15:20:08.550,0.871,-0.297,-0.207
10/4/2023 15:20:08.560,0.902,-0.266,-0.184
10/4/2023 15:20:08.570,0.941,-0.223,-0.141
10/4/2023 15:20:08.580,1.031,-0.215,-0.125
10/4/2023 15:20:08.590,1.16,-0.211,-0.168
10/4/2023 15:20:08.600,1.246,-0.211,-0.246
10/4/2023 15:20:08.610,1.273,-0.195,-0.289
10/4/2023 15:20:08.620,1.297,-0.152,-0.281
10/4/2023 15:20:08.630,1.371,-0.102,-0.242
10/4/2023 15:20:08.640,1.496,-0.063,-0.18
10/4/2023 15:20:08.650,1.598,-0.027,-0.113
10/4/2023 15:20:08.660,1.68,0.02,-0.055
10/4/2023 15:20:08.670,1.715,0.074,-0.043
10/4/2023 15:20:08.680,1.727,0.125,-0.039
10/4/2023 15:20:08.690,1.727,0.152,-0.027
10/4/2023 15:20:08.700,1.715,0.176,-0.02
10/4/2023 15:20:08.710,1.707,0.207,0.004
10/4/2023 15:20:08.720,1.695,0.238,0.051
10/4/2023 15:20:08.730,1.672,0.258,0.125
10/4/2023 15:20:08.740,1.652,0.258,0.195
10/4/2023 15:20:08.750,1.641,0.219,0.262
10/4/2023 15:20:08.760,1.645,0.156,0.277
10/4/2023 15:20:08.770,1.719,0.063,0.551
10/4/2023 15:20:08.780,1.77,-0.344,0.75
10/4/2023 15:20:08.790,1.938,-0.379,0.535
10/4/2023 15:20:08.800,1.75,0.371,-0.098
10/4/2023 15:20:08.810,1.441,0.895,0.047
10/4/2023 15:20:08.820,1.227,0.934,-0.055
10/4/2023 15:20:08.830,1.16,0.77,0.031
10/4/2023 15:20:08.840,1.227,0.637,0.086
10/4/2023 15:20:08.850,1.301,0.543,0.109
10/4/2023 15:20:08.860,1.301,0.512,0.133
10/4/2023 15:20:08.870,1.25,0.508,0.164
10/4/2023 15:20:08.880,1.207,0.527,0.203
10/4/2023 15:20:08.890,1.18,0.559,0.227
10/4/2023 15:20:08.900,1.156,0.563,0.25
10/4/2023 15:20:08.910,1.141,0.512,0.27
10/4/2023 15:20:08.920,1.121,0.434,0.289
10/4/2023 15:20:08.930,1.098,0.367,0.309
10/4/2023 15:20:08.940,1.07,0.344,0.324
10/4/2023 15:20:08.950,1.035,0.355,0.32
10/4/2023 15:20:08.960,1.004,0.371,0.32
10/4/2023 15:20:08.970,0.988,0.383,0.32
10/4/2023 15:20:08.980,0.988,0.363,0.313
10/4/2023 15:20:08.990,1.012,0.363,0.305
10/4/2023 15:20:09.000,1.043,0.391,0.297
10/4/2023 15:20:09.010,1.109,0.434,0.309
10/4/2023 15:20:09.020,1.164,0.484,0.297
10/4/2023 15:20:09.030,1.215,0.504,0.273
10/4/2023 15:20:09.040,1.266,0.496,0.23
10/4/2023 15:20:09.050,1.313,0.477,0.18
10/4/2023 15:20:09.060,1.363,0.453,0.133
10/4/2023 15:20:09.070,1.414,0.453,0.102
10/4/2023 15:20:09.080,1.504,0.473,0.129
10/4/2023 15:20:09.090,1.613,0.484,0.191
10/4/2023 15:20:09.100,1.652,0.469,0.23
10/4/2023 15:20:09.110,1.613,0.41,0.215
10/4/2023 15:20:09.120,1.551,0.34,0.152
10/4/2023 15:20:09.130,1.555,0.289,0.059
10/4/2023 15:20:09.140,1.637,0.27,-0.031
10/4/2023 15:20:09.150,1.758,0.262,-0.09
10/4/2023 15:20:09.160,1.848,0.246,-0.121
10/4/2023 15:20:09.170,1.895,0.211,-0.133
10/4/2023 15:20:09.180,1.898,0.191,-0.141
10/4/2023 15:20:09.190,1.895,0.195,-0.16
10/4/2023 15:20:09.200,1.895,0.195,-0.18
10/4/2023 15:20:09.210,1.879,0.203,-0.203
10/4/2023 15:20:09.220,1.848,0.199,-0.215
10/4/2023 15:20:09.230,1.805,0.199,-0.215
10/4/2023 15:20:09.240,1.754,0.207,-0.195
10/4/2023 15:20:09.250,1.707,0.203,-0.168
10/4/2023 15:20:09.260,1.66,0.188,-0.137
10/4/2023 15:20:09.270,1.602,0.172,-0.121
10/4/2023 15:20:09.280,1.539,0.164,-0.113
10/4/2023 15:20:09.290,1.484,0.164,-0.113
10/4/2023 15:20:09.300,1.43,0.172,-0.125
10/4/2023 15:20:09.310,1.375,0.176,-0.141
10/4/2023 15:20:09.320,1.324,0.164,-0.148
10/4/2023 15:20:09.330,1.273,0.148,-0.16
10/4/2023 15:20:09.340,1.223,0.137,-0.164
10/4/2023 15:20:09.350,1.184,0.125,-0.164
10/4/2023 15:20:09.360,1.145,0.098,-0.168
10/4/2023 15:20:09.370,1.117,0.066,-0.164
10/4/2023 15:20:09.380,1.07,0.047,-0.16
10/4/2023 15:20:09.390,1.027,0.023,-0.152
10/4/2023 15:20:09.400,0.988,0,-0.156
10/4/2023 15:20:09.410,0.949,-0.027,-0.152
10/4/2023 15:20:09.420,0.898,-0.074,-0.156
10/4/2023 15:20:09.430,0.848,-0.141,-0.168
10/4/2023 15:20:09.440,0.785,-0.207,-0.168
10/4/2023 15:20:09.450,0.727,-0.246,-0.152
10/4/2023 15:20:09.460,0.684,-0.238,-0.129
10/4/2023 15:20:09.470,0.648,-0.223,-0.098
10/4/2023 15:20:09.480,0.633,-0.211,-0.082
10/4/2023 15:20:09.490,0.633,-0.203,-0.07
10/4/2023 15:20:09.500,0.645,-0.184,-0.051
10/4/2023 15:20:09.510,0.688,-0.168,-0.043
10/4/2023 15:20:09.520,0.715,-0.152,-0.047
10/4/2023 15:20:09.530,0.734,-0.145,-0.055
10/4/2023 15:20:09.540,0.75,-0.137,-0.063
10/4/2023 15:20:09.550,0.773,-0.125,-0.066
10/4/2023 15:20:09.560,0.828,-0.113,-0.078
10/4/2023 15:20:09.570,0.93,-0.105,-0.109
10/4/2023 15:20:09.580,1.051,-0.098,-0.148
10/4/2023 15:20:09.590,1.125,-0.094,-0.172
10/4/2023 15:20:09.600,1.137,-0.078,-0.184
10/4/2023 15:20:09.610,1.117,-0.063,-0.188
10/4/2023 15:20:09.620,1.129,-0.023,-0.172
10/4/2023 15:20:09.630,1.18,0.027,-0.145
10/4/2023 15:20:09.640,1.25,0.063,-0.117
10/4/2023 15:20:09.650,1.305,0.074,-0.09
10/4/2023 15:20:09.660,1.348,0.078,-0.066
10/4/2023 15:20:09.670,1.383,0.094,-0.051
10/4/2023 15:20:09.680,1.414,0.109,-0.035
10/4/2023 15:20:09.690,1.438,0.133,-0.016
10/4/2023 15:20:09.700,1.457,0.156,0.012
10/4/2023 15:20:09.710,1.457,0.164,0.043
10/4/2023 15:20:09.720,1.465,0.164,0.09
10/4/2023 15:20:09.730,1.488,0.152,0.148
10/4/2023 15:20:09.740,1.535,0.152,0.191
10/4/2023 15:20:09.750,1.586,0.152,0.223
10/4/2023 15:20:09.760,1.613,0.156,0.238
10/4/2023 15:20:09.770,1.629,0.156,0.227
10/4/2023 15:20:09.780,1.648,0.145,0.211
10/4/2023 15:20:09.790,1.707,0.109,0.254
10/4/2023 15:20:09.800,1.809,-0.117,0.441
10/4/2023 15:20:09.810,1.887,-0.195,0.453
10/4/2023 15:20:09.820,1.992,-0.223,0.699
10/4/2023 15:20:09.830,2.289,-0.48,0.574
10/4/2023 15:20:09.840,1.375,0.852,-1.121
10/4/2023 15:20:09.850,1.031,1.621,-0.094
10/4/2023 15:20:09.860,0.934,1.086,-0.316
10/4/2023 15:20:09.870,1.063,0.672,-0.289
10/4/2023 15:20:09.880,1.313,0.715,-0.117
10/4/2023 15:20:09.890,1.492,0.688,-0.09
10/4/2023 15:20:09.900,1.426,0.563,-0.059
10/4/2023 15:20:09.910,1.25,0.484,0.02
10/4/2023 15:20:09.920,1.121,0.488,0.051
10/4/2023 15:20:09.930,1.07,0.563,0.059
10/4/2023 15:20:09.940,1.055,0.613,0.059
10/4/2023 15:20:09.950,1.051,0.547,0.051
10/4/2023 15:20:09.960,1.043,0.41,0.063
10/4/2023 15:20:09.970,1.027,0.301,0.086
10/4/2023 15:20:09.980,0.996,0.289,0.105
10/4/2023 15:20:09.990,0.969,0.379,0.121
10/4/2023 15:20:10.000,0.957,0.496,0.137
10/4/2023 15:20:10.010,1,0.582,0.172
10/4/2023 15:20:10.020,1.055,0.613,0.195
10/4/2023 15:20:10.030,1.086,0.609,0.195
10/4/2023 15:20:10.040,1.102,0.609,0.18
10/4/2023 15:20:10.050,1.113,0.625,0.156
10/4/2023 15:20:10.060,1.125,0.629,0.137
10/4/2023 15:20:10.070,1.145,0.605,0.113
10/4/2023 15:20:10.080,1.156,0.559,0.098
10/4/2023 15:20:10.090,1.172,0.527,0.105
10/4/2023 15:20:10.100,1.215,0.566,0.152
10/4/2023 15:20:10.110,1.27,0.648,0.215
10/4/2023 15:20:10.120,1.32,0.727,0.25
10/4/2023 15:20:10.130,1.348,0.746,0.238
10/4/2023 15:20:10.140,1.363,0.699,0.176
10/4/2023 15:20:10.150,1.395,0.617,0.094
10/4/2023 15:20:10.160,1.461,0.535,0.035
10/4/2023 15:20:10.170,1.551,0.473,0.004
10/4/2023 15:20:10.180,1.641,0.402,-0.02
10/4/2023 15:20:10.190,1.719,0.32,-0.023
10/4/2023 15:20:10.200,1.762,0.246,-0.02
10/4/2023 15:20:10.210,1.766,0.18,-0.035
10/4/2023 15:20:10.220,1.75,0.125,-0.059
10/4/2023 15:20:10.230,1.762,0.102,-0.086
10/4/2023 15:20:10.240,1.785,0.094,-0.113
10/4/2023 15:20:10.250,1.805,0.086,-0.141
10/4/2023 15:20:10.260,1.805,0.09,-0.156
10/4/2023 15:20:10.270,1.797,0.105,-0.164
10/4/2023 15:20:10.280,1.777,0.133,-0.16
10/4/2023 15:20:10.290,1.746,0.156,-0.152
10/4/2023 15:20:10.300,1.723,0.172,-0.145
10/4/2023 15:20:10.310,1.684,0.188,-0.133
10/4/2023 15:20:10.320,1.648,0.199,-0.109
10/4/2023 15:20:10.330,1.605,0.207,-0.09
10/4/2023 15:20:10.340,1.566,0.219,-0.082
10/4/2023 15:20:10.350,1.535,0.227,-0.082
10/4/2023 15:20:10.360,1.504,0.215,-0.094
10/4/2023 15:20:10.370,1.469,0.203,-0.098
10/4/2023 15:20:10.380,1.434,0.188,-0.094
10/4/2023 15:20:10.390,1.402,0.172,-0.098
10/4/2023 15:20:10.400,1.367,0.16,-0.113
10/4/2023 15:20:10.410,1.332,0.117,-0.129
10/4/2023 15:20:10.420,1.293,0.07,-0.141
10/4/2023 15:20:10.430,1.227,0.02,-0.145
10/4/2023 15:20:10.440,1.141,-0.043,-0.148
10/4/2023 15:20:10.450,1.055,-0.109,-0.148
10/4/2023 15:20:10.460,0.957,-0.176,-0.148
10/4/2023 15:20:10.470,0.852,-0.254,-0.141
10/4/2023 15:20:10.480,0.734,-0.32,-0.141
10/4/2023 15:20:10.490,0.621,-0.363,-0.102
10/4/2023 15:20:10.500,0.523,-0.371,-0.047
10/4/2023 15:20:10.510,0.473,-0.367,-0.008
10/4/2023 15:20:10.520,0.457,-0.367,0.008
10/4/2023 15:20:10.530,0.469,-0.367,0.016
10/4/2023 15:20:10.540,0.488,-0.371,0.012
10/4/2023 15:20:10.550,0.535,-0.363,0.008
10/4/2023 15:20:10.560,0.598,-0.34,0.008
10/4/2023 15:20:10.570,0.668,-0.297,0.012
10/4/2023 15:20:10.580,0.723,-0.242,0.023
10/4/2023 15:20:10.590,0.785,-0.203,0.043
10/4/2023 15:20:10.600,0.898,-0.16,0.035
10/4/2023 15:20:10.610,1.047,-0.094,-0.016
10/4/2023 15:20:10.620,1.172,-0.035,-0.082
10/4/2023 15:20:10.630,1.223,0.012,-0.133
10/4/2023 15:20:10.640,1.219,0.031,-0.16
10/4/2023 15:20:10.650,1.242,0.055,-0.16
10/4/2023 15:20:10.660,1.309,0.074,-0.141
10/4/2023 15:20:10.670,1.398,0.113,-0.109
10/4/2023 15:20:10.680,1.488,0.156,-0.082
10/4/2023 15:20:10.690,1.539,0.203,-0.063
10/4/2023 15:20:10.700,1.563,0.254,-0.039
10/4/2023 15:20:10.710,1.551,0.313,-0.004
10/4/2023 15:20:10.720,1.512,0.328,0.047
10/4/2023 15:20:10.730,1.469,0.313,0.109
10/4/2023 15:20:10.740,1.457,0.289,0.172
10/4/2023 15:20:10.750,1.461,0.266,0.246
10/4/2023 15:20:10.760,1.48,0.246,0.305
10/4/2023 15:20:10.770,1.508,0.227,0.34
10/4/2023 15:20:10.780,1.531,0.195,0.344
10/4/2023 15:20:10.790,1.551,0.148,0.328
10/4/2023 15:20:10.800,1.598,0.078,0.332
10/4/2023 15:20:10.810,1.699,-0.078,0.473
10/4/2023 15:20:10.820,1.797,-0.227,0.582
10/4/2023 15:20:10.830,1.859,-0.41,0.68
10/4/2023 15:20:10.840,1.879,-0.32,0.422
10/4/2023 15:20:10.850,1.949,0.188,0.441
10/4/2023 15:20:10.860,2.434,0.344,0.168
10/4/2023 15:20:10.870,1.176,1,-1.227
10/4/2023 15:20:10.880,0.449,1.629,-0.227
10/4/2023 15:20:10.890,0.469,1.133,-0.301
10/4/2023 15:20:10.900,0.84,0.758,-0.25
10/4/2023 15:20:10.910,1.23,0.664,-0.105
10/4/2023 15:20:10.920,1.41,0.547,-0.09
10/4/2023 15:20:10.930,1.309,0.449,-0.047
10/4/2023 15:20:10.940,1.07,0.453,0.016
10/4/2023 15:20:10.950,0.914,0.559,0.031
10/4/2023 15:20:10.960,0.883,0.715,0.02
10/4/2023 15:20:10.970,0.902,0.777,0
10/4/2023 15:20:10.980,0.938,0.68,-0.023
10/4/2023 15:20:10.990,0.961,0.508,-0.027
10/4/2023 15:20:11.000,0.965,0.359,-0.004
10/4/2023 15:20:11.010,0.98,0.328,0.027
10/4/2023 15:20:11.020,0.992,0.402,0.047
10/4/2023 15:20:11.030,1.02,0.504,0.082
10/4/2023 15:20:11.040,1.063,0.574,0.113
10/4/2023 15:20:11.050,1.102,0.594,0.129
10/4/2023 15:20:11.060,1.117,0.582,0.133
10/4/2023 15:20:11.070,1.125,0.582,0.109
10/4/2023 15:20:11.080,1.117,0.586,0.086
10/4/2023 15:20:11.090,1.129,0.563,0.055
10/4/2023 15:20:11.100,1.195,0.539,0.055
10/4/2023 15:20:11.110,1.305,0.559,0.086
10/4/2023 15:20:11.120,1.383,0.609,0.125
10/4/2023 15:20:11.130,1.395,0.672,0.141
10/4/2023 15:20:11.140,1.363,0.711,0.113
10/4/2023 15:20:11.150,1.344,0.688,0.059
10/4/2023 15:20:11.160,1.375,0.609,-0.008
10/4/2023 15:20:11.170,1.449,0.531,-0.066
10/4/2023 15:20:11.180,1.504,0.473,-0.082
10/4/2023 15:20:11.190,1.512,0.43,-0.066
10/4/2023 15:20:11.200,1.488,0.391,-0.047
10/4/2023 15:20:11.210,1.449,0.348,-0.035
10/4/2023 15:20:11.220,1.434,0.305,-0.039
10/4/2023 15:20:11.230,1.441,0.273,-0.043
10/4/2023 15:20:11.240,1.457,0.25,-0.047
10/4/2023 15:20:11.250,1.48,0.234,-0.043
10/4/2023 15:20:11.260,1.5,0.215,-0.035
10/4/2023 15:20:11.270,1.508,0.199,-0.023
10/4/2023 15:20:11.280,1.52,0.184,-0.027
10/4/2023 15:20:11.290,1.531,0.18,-0.035
10/4/2023 15:20:11.300,1.531,0.188,-0.055
10/4/2023 15:20:11.310,1.52,0.188,-0.066
10/4/2023 15:20:11.320,1.484,0.18,-0.07
10/4/2023 15:20:11.330,1.445,0.172,-0.07
10/4/2023 15:20:11.340,1.406,0.164,-0.07
10/4/2023 15:20:11.350,1.383,0.16,-0.074
10/4/2023 15:20:11.360,1.367,0.16,-0.074
10/4/2023 15:20:11.370,1.371,0.16,-0.07
10/4/2023 15:20:11.380,1.387,0.156,-0.07
10/4/2023 15:20:11.390,1.406,0.133,-0.098
10/4/2023 15:20:11.400,1.418,0.07,-0.129
10/4/2023 15:20:11.410,1.395,-0.012,-0.156
10/4/2023 15:20:11.420,1.34,-0.082,-0.16
10/4/2023 15:20:11.430,1.266,-0.133,-0.141
10/4/2023 15:20:11.440,1.16,-0.148,-0.105
10/4/2023 15:20:11.450,1.063,-0.16,-0.066
10/4/2023 15:20:11.460,0.977,-0.164,-0.043
10/4/2023 15:20:11.470,0.906,-0.188,-0.023
10/4/2023 15:20:11.480,0.855,-0.238,-0.012
10/4/2023 15:20:11.490,0.828,-0.324,-0.008
10/4/2023 15:20:11.500,0.832,-0.422,-0.004
10/4/2023 15:20:11.510,0.879,-0.496,-0.016
10/4/2023 15:20:11.520,0.895,-0.527,-0.031
10/4/2023 15:20:11.530,0.879,-0.539,-0.059
10/4/2023 15:20:11.540,0.883,-0.559,-0.094
10/4/2023 15:20:11.550,0.945,-0.566,-0.148
10/4/2023 15:20:11.560,1.031,-0.57,-0.199
10/4/2023 15:20:11.570,1.082,-0.559,-0.238
10/4/2023 15:20:11.580,1.109,-0.539,-0.242
10/4/2023 15:20:11.590,1.152,-0.484,-0.211
10/4/2023 15:20:11.600,1.188,-0.379,-0.172
10/4/2023 15:20:11.610,1.188,-0.254,-0.129
10/4/2023 15:20:11.620,1.133,-0.168,-0.066
10/4/2023 15:20:11.630,1.066,-0.117,-0.004
10/4/2023 15:20:11.640,1.051,-0.082,0.047
10/4/2023 15:20:11.650,1.105,-0.043,0.082
10/4/2023 15:20:11.660,1.199,-0.027,0.117
10/4/2023 15:20:11.670,1.262,-0.027,0.141
10/4/2023 15:20:11.680,1.289,-0.047,0.168
10/4/2023 15:20:11.690,1.309,-0.086,0.207
10/4/2023 15:20:11.700,1.344,-0.121,0.258
10/4/2023 15:20:11.710,1.379,-0.137,0.301
10/4/2023 15:20:11.720,1.43,-0.145,0.328
10/4/2023 15:20:11.730,1.477,-0.141,0.34
10/4/2023 15:20:11.740,1.516,-0.113,0.34
10/4/2023 15:20:11.750,1.531,-0.086,0.344
10/4/2023 15:20:11.760,1.531,-0.055,0.348
10/4/2023 15:20:11.770,1.512,-0.02,0.34
10/4/2023 15:20:11.780,1.504,0.016,0.324
10/4/2023 15:20:11.790,1.484,0.055,0.301
10/4/2023 15:20:11.800,1.477,0.094,0.262
10/4/2023 15:20:11.810,1.445,0.137,0.223
10/4/2023 15:20:11.820,1.414,0.18,0.191
10/4/2023 15:20:11.830,1.383,0.223,0.164
10/4/2023 15:20:11.840,1.363,0.258,0.137
10/4/2023 15:20:11.850,1.352,0.297,0.109
10/4/2023 15:20:11.860,1.332,0.34,0.078
10/4/2023 15:20:11.870,1.313,0.383,0.066
10/4/2023 15:20:11.880,1.293,0.41,0.059
10/4/2023 15:20:11.890,1.27,0.434,0.059
10/4/2023 15:20:11.900,1.234,0.43,0.063
10/4/2023 15:20:11.910,1.207,0.43,0.063
10/4/2023 15:20:11.920,1.188,0.438,0.059
10/4/2023 15:20:11.930,1.168,0.441,0.043
10/4/2023 15:20:11.940,1.164,0.449,0.027
10/4/2023 15:20:11.950,1.141,0.461,0.012
10/4/2023 15:20:11.960,1.109,0.477,-0.004
10/4/2023 15:20:11.970,1.07,0.492,-0.023
10/4/2023 15:20:11.980,1.047,0.512,-0.047
10/4/2023 15:20:11.990,1.031,0.535,-0.066
10/4/2023 15:20:12.000,1.012,0.566,-0.078
10/4/2023 15:20:12.010,1.031,0.609,-0.074
10/4/2023 15:20:12.020,1.059,0.656,-0.066
10/4/2023 15:20:12.030,1.074,0.707,-0.059
10/4/2023 15:20:12.040,1.074,0.75,-0.043
10/4/2023 15:20:12.050,1.063,0.77,-0.039
10/4/2023 15:20:12.060,1.055,0.77,-0.031
10/4/2023 15:20:12.070,1.051,0.75,-0.016
10/4/2023 15:20:12.080,1.063,0.723,0
10/4/2023 15:20:12.090,1.078,0.688,0.039
10/4/2023 15:20:12.100,1.121,0.668,0.086
10/4/2023 15:20:12.110,1.195,0.711,0.16
10/4/2023 15:20:12.120,1.242,0.777,0.246
10/4/2023 15:20:12.130,1.25,0.809,0.27
10/4/2023 15:20:12.140,1.277,0.777,0.227
10/4/2023 15:20:12.150,1.344,0.676,0.168
10/4/2023 15:20:12.160,1.473,0.555,0.113
10/4/2023 15:20:12.170,1.625,0.445,0.07
10/4/2023 15:20:12.180,1.75,0.348,0.035
10/4/2023 15:20:12.190,1.824,0.262,0.02
10/4/2023 15:20:12.200,1.836,0.199,0.016
10/4/2023 15:20:12.210,1.824,0.141,0.008
10/4/2023 15:20:12.220,1.805,0.09,0
10/4/2023 15:20:12.230,1.809,0.051,-0.008
10/4/2023 15:20:12.240,1.805,0.027,-0.012
10/4/2023 15:20:12.250,1.793,0.008,-0.008
10/4/2023 15:20:12.260,1.762,0.008,0.012
10/4/2023 15:20:12.270,1.719,0.02,0.051
10/4/2023 15:20:12.280,1.68,0.035,0.082
10/4/2023 15:20:12.290,1.641,0.043,0.109
10/4/2023 15:20:12.300,1.602,0.043,0.117
10/4/2023 15:20:12.310,1.563,0.043,0.113
10/4/2023 15:20:12.320,1.516,0.039,0.09
10/4/2023 15:20:12.330,1.469,0.031,0.055
10/4/2023 15:20:12.340,1.418,0.023,0.016
10/4/2023 15:20:12.350,1.367,0,-0.016
10/4/2023 15:20:12.360,1.32,-0.012,-0.027
10/4/2023 15:20:12.370,1.27,-0.02,-0.027
10/4/2023 15:20:12.380,1.227,-0.008,-0.027
10/4/2023 15:20:12.390,1.191,0.012,-0.02
10/4/2023 15:20:12.400,1.156,0.023,-0.016
10/4/2023 15:20:12.410,1.133,0.031,-0.012
10/4/2023 15:20:12.420,1.109,0.027,-0.027
10/4/2023 15:20:12.430,1.09,0,-0.059
10/4/2023 15:20:12.440,1.055,-0.027,-0.082
10/4/2023 15:20:12.450,1.012,-0.063,-0.105
10/4/2023 15:20:12.460,0.977,-0.113,-0.129
10/4/2023 15:20:12.470,0.941,-0.152,-0.145
10/4/2023 15:20:12.480,0.902,-0.164,-0.145
10/4/2023 15:20:12.490,0.844,-0.148,-0.129
10/4/2023 15:20:12.500,0.773,-0.129,-0.113
10/4/2023 15:20:12.510,0.738,-0.113,-0.09
10/4/2023 15:20:12.520,0.727,-0.117,-0.078
10/4/2023 15:20:12.530,0.742,-0.133,-0.063
10/4/2023 15:20:12.540,0.77,-0.152,-0.047
10/4/2023 15:20:12.550,0.797,-0.176,-0.051
10/4/2023 15:20:12.560,0.828,-0.199,-0.059
10/4/2023 15:20:12.570,0.852,-0.211,-0.066
10/4/2023 15:20:12.580,0.867,-0.195,-0.07
10/4/2023 15:20:12.590,0.883,-0.176,-0.063
10/4/2023 15:20:12.600,0.914,-0.176,-0.043
10/4/2023 15:20:12.610,0.973,-0.184,-0.027
10/4/2023 15:20:12.620,1.074,-0.176,-0.047
10/4/2023 15:20:12.630,1.133,-0.148,-0.098
10/4/2023 15:20:12.640,1.094,-0.125,-0.152
10/4/2023 15:20:12.650,1.023,-0.109,-0.184
10/4/2023 15:20:12.660,1.004,-0.094,-0.184
10/4/2023 15:20:12.670,1.059,-0.066,-0.133
10/4/2023 15:20:12.680,1.152,-0.031,-0.066
10/4/2023 15:20:12.690,1.258,-0.004,-0.016
10/4/2023 15:20:12.700,1.332,0.016,0.012
10/4/2023 15:20:12.710,1.371,0.031,0.023
10/4/2023 15:20:12.720,1.395,0.039,0.031
10/4/2023 15:20:12.730,1.422,0.039,0.055
10/4/2023 15:20:12.740,1.441,0.043,0.09
10/4/2023 15:20:12.750,1.445,0.043,0.145
10/4/2023 15:20:12.760,1.453,0.043,0.215
10/4/2023 15:20:12.770,1.465,0.039,0.293
10/4/2023 15:20:12.780,1.488,0.031,0.363
10/4/2023 15:20:12.790,1.523,0.012,0.395
10/4/2023 15:20:12.800,1.555,0.012,0.395
10/4/2023 15:20:12.810,1.586,0.027,0.363
10/4/2023 15:20:12.820,1.613,0.051,0.336
10/4/2023 15:20:12.830,1.621,0.094,0.316
10/4/2023 15:20:12.840,1.617,0.141,0.328
10/4/2023 15:20:12.850,1.637,0.094,0.449
10/4/2023 15:20:12.860,1.539,0.121,0.293
10/4/2023 15:20:12.870,1.48,0.281,0.348
10/4/2023 15:20:12.880,1.473,0.242,0.313
10/4/2023 15:20:12.890,1.465,0.188,0.313
10/4/2023 15:20:12.900,1.453,0.211,0.316
10/4/2023 15:20:12.910,1.434,0.25,0.305
10/4/2023 15:20:12.920,1.391,0.281,0.305
10/4/2023 15:20:12.930,1.348,0.32,0.316
10/4/2023 15:20:12.940,1.301,0.359,0.336
10/4/2023 15:20:12.950,1.234,0.391,0.344
10/4/2023 15:20:12.960,1.188,0.41,0.332
10/4/2023 15:20:12.970,1.16,0.426,0.301
10/4/2023 15:20:12.980,1.145,0.445,0.27
10/4/2023 15:20:12.990,1.145,0.48,0.238
10/4/2023 15:20:13.000,1.133,0.527,0.23
10/4/2023 15:20:13.010,1.137,0.574,0.219
10/4/2023 15:20:13.020,1.137,0.625,0.211
10/4/2023 15:20:13.030,1.133,0.672,0.207
10/4/2023 15:20:13.040,1.125,0.703,0.199
10/4/2023 15:20:13.050,1.098,0.719,0.188
10/4/2023 15:20:13.060,1.082,0.719,0.164
10/4/2023 15:20:13.070,1.078,0.707,0.152
10/4/2023 15:20:13.080,1.082,0.676,0.137
10/4/2023 15:20:13.090,1.082,0.637,0.137
10/4/2023 15:20:13.100,1.066,0.59,0.133
10/4/2023 15:20:13.110,1.063,0.551,0.121
10/4/2023 15:20:13.120,1.121,0.566,0.152
10/4/2023 15:20:13.130,1.215,0.645,0.219
10/4/2023 15:20:13.140,1.246,0.691,0.234
10/4/2023 15:20:13.150,1.242,0.668,0.203
10/4/2023 15:20:13.160,1.309,0.609,0.141
10/4/2023 15:20:13.170,1.457,0.543,0.066
10/4/2023 15:20:13.180,1.648,0.477,-0.008
10/4/2023 15:20:13.190,1.82,0.387,-0.082
10/4/2023 15:20:13.200,1.93,0.289,-0.133
10/4/2023 15:20:13.210,1.938,0.199,-0.172
10/4/2023 15:20:13.220,1.895,0.145,-0.199
10/4/2023 15:20:13.230,1.836,0.109,-0.227
10/4/2023 15:20:13.240,1.77,0.098,-0.242
10/4/2023 15:20:13.250,1.73,0.09,-0.238
10/4/2023 15:20:13.260,1.711,0.078,-0.223
10/4/2023 15:20:13.270,1.695,0.086,-0.195
10/4/2023 15:20:13.280,1.68,0.109,-0.176
10/4/2023 15:20:13.290,1.664,0.137,-0.168
10/4/2023 15:20:13.300,1.648,0.152,-0.176
10/4/2023 15:20:13.310,1.613,0.145,-0.188
10/4/2023 15:20:13.320,1.578,0.117,-0.195
10/4/2023 15:20:13.330,1.539,0.035,-0.223
10/4/2023 15:20:13.340,1.496,-0.055,-0.25
10/4/2023 15:20:13.350,1.43,-0.121,-0.262
10/4/2023 15:20:13.360,1.344,-0.148,-0.262
10/4/2023 15:20:13.370,1.262,-0.152,-0.258
10/4/2023 15:20:13.380,1.191,-0.133,-0.246
10/4/2023 15:20:13.390,1.113,-0.105,-0.215
10/4/2023 15:20:13.400,1.043,-0.094,-0.195
10/4/2023 15:20:13.410,0.984,-0.105,-0.172
10/4/2023 15:20:13.420,0.949,-0.137,-0.156
10/4/2023 15:20:13.430,0.922,-0.18,-0.152
10/4/2023 15:20:13.440,0.922,-0.234,-0.156
10/4/2023 15:20:13.450,0.934,-0.262,-0.16
10/4/2023 15:20:13.460,0.93,-0.273,-0.156
10/4/2023 15:20:13.470,0.906,-0.281,-0.133
10/4/2023 15:20:13.480,0.887,-0.297,-0.086
10/4/2023 15:20:13.490,0.879,-0.336,-0.066
10/4/2023 15:20:13.500,0.867,-0.371,-0.063
10/4/2023 15:20:13.510,0.879,-0.387,-0.066
10/4/2023 15:20:13.520,0.871,-0.387,-0.07
10/4/2023 15:20:13.530,0.844,-0.387,-0.059
10/4/2023 15:20:13.540,0.809,-0.395,-0.035
10/4/2023 15:20:13.550,0.777,-0.402,-0.004
10/4/2023 15:20:13.560,0.758,-0.391,0.035
10/4/2023 15:20:13.570,0.742,-0.367,0.086
10/4/2023 15:20:13.580,0.723,-0.332,0.145
10/4/2023 15:20:13.590,0.715,-0.313,0.203
10/4/2023 15:20:13.600,0.742,-0.328,0.242
10/4/2023 15:20:13.610,0.848,-0.352,0.23
10/4/2023 15:20:13.620,0.996,-0.367,0.211
10/4/2023 15:20:13.630,1.059,-0.383,0.168
10/4/2023 15:20:13.640,1.063,-0.406,0.129
10/4/2023 15:20:13.650,1.09,-0.398,0.113
10/4/2023 15:20:13.660,1.176,-0.34,0.113
10/4/2023 15:20:13.670,1.27,-0.254,0.129
10/4/2023 15:20:13.680,1.344,-0.172,0.16
10/4/2023 15:20:13.690,1.395,-0.102,0.191
10/4/2023 15:20:13.700,1.406,-0.039,0.227
10/4/2023 15:20:13.710,1.391,0.004,0.246
10/4/2023 15:20:13.720,1.379,0.027,0.266
10/4/2023 15:20:13.730,1.379,0.043,0.27
10/4/2023 15:20:13.740,1.387,0.066,0.293
10/4/2023 15:20:13.750,1.398,0.09,0.324
10/4/2023 15:20:13.760,1.398,0.098,0.348
10/4/2023 15:20:13.770,1.387,0.098,0.348
10/4/2023 15:20:13.780,1.367,0.09,0.332
10/4/2023 15:20:13.790,1.344,0.094,0.297
10/4/2023 15:20:13.800,1.316,0.109,0.25
10/4/2023 15:20:13.810,1.297,0.137,0.211
10/4/2023 15:20:13.820,1.281,0.168,0.188
10/4/2023 15:20:13.830,1.262,0.195,0.168
10/4/2023 15:20:13.840,1.234,0.219,0.152
10/4/2023 15:20:13.850,1.203,0.23,0.148
10/4/2023 15:20:13.860,1.176,0.242,0.145
10/4/2023 15:20:13.870,1.152,0.246,0.141
10/4/2023 15:20:13.880,1.137,0.254,0.133
10/4/2023 15:20:13.890,1.125,0.266,0.117
10/4/2023 15:20:13.900,1.113,0.273,0.098
10/4/2023 15:20:13.910,1.105,0.285,0.078
10/4/2023 15:20:13.920,1.09,0.313,0.074
10/4/2023 15:20:13.930,1.066,0.34,0.066
10/4/2023 15:20:13.940,1.055,0.375,0.066
10/4/2023 15:20:13.950,1.039,0.398,0.066
10/4/2023 15:20:13.960,1.027,0.418,0.074
10/4/2023 15:20:13.970,1.008,0.438,0.078
10/4/2023 15:20:13.980,0.977,0.449,0.09
10/4/2023 15:20:13.990,0.953,0.449,0.098
10/4/2023 15:20:14.000,0.941,0.449,0.102
10/4/2023 15:20:14.010,0.949,0.461,0.117
10/4/2023 15:20:14.020,0.965,0.484,0.129
10/4/2023 15:20:14.030,0.996,0.52,0.148
10/4/2023 15:20:14.040,1.016,0.559,0.168
10/4/2023 15:20:14.050,1.023,0.594,0.176
10/4/2023 15:20:14.060,1.023,0.617,0.188
10/4/2023 15:20:14.070,1.027,0.625,0.188
10/4/2023 15:20:14.080,1.035,0.625,0.172
10/4/2023 15:20:14.090,1.09,0.625,0.164
10/4/2023 15:20:14.100,1.238,0.668,0.18
10/4/2023 15:20:14.110,1.398,0.75,0.219
10/4/2023 15:20:14.120,1.465,0.809,0.238
10/4/2023 15:20:14.130,1.449,0.797,0.23
10/4/2023 15:20:14.140,1.414,0.723,0.172
10/4/2023 15:20:14.150,1.445,0.621,0.094
10/4/2023 15:20:14.160,1.531,0.508,0.043
10/4/2023 15:20:14.170,1.633,0.398,0.012
10/4/2023 15:20:14.180,1.707,0.297,0
10/4/2023 15:20:14.190,1.762,0.195,-0.008
10/4/2023 15:20:14.200,1.789,0.102,-0.008
10/4/2023 15:20:14.210,1.809,0.02,-0.008
10/4/2023 15:20:14.220,1.797,-0.07,-0.004
10/4/2023 15:20:14.230,1.75,-0.172,-0.012
10/4/2023 15:20:14.240,1.668,-0.262,-0.027
10/4/2023 15:20:14.250,1.609,-0.32,-0.035
10/4/2023 15:20:14.260,1.57,-0.344,-0.066
10/4/2023 15:20:14.270,1.531,-0.352,-0.105
10/4/2023 15:20:14.280,1.484,-0.383,-0.121
10/4/2023 15:20:14.290,1.438,-0.438,-0.117
10/4/2023 15:20:14.300,1.391,-0.5,-0.121
10/4/2023 15:20:14.310,1.32,-0.555,-0.129
10/4/2023 15:20:14.320,1.234,-0.594,-0.141
10/4/2023 15:20:14.330,1.164,-0.602,-0.133
10/4/2023 15:20:14.340,1.137,-0.605,-0.121
10/4/2023 15:20:14.350,1.133,-0.621,-0.113
10/4/2023 15:20:14.360,1.121,-0.652,-0.109
10/4/2023 15:20:14.370,1.094,-0.676,-0.102
10/4/2023 15:20:14.380,1.043,-0.684,-0.094
10/4/2023 15:20:14.390,0.988,-0.684,-0.078
10/4/2023 15:20:14.400,0.934,-0.688,-0.051
10/4/2023 15:20:14.410,0.895,-0.719,-0.016
10/4/2023 15:20:14.420,0.879,-0.754,0.02
10/4/2023 15:20:14.430,0.863,-0.777,0.043
10/4/2023 15:20:14.440,0.844,-0.789,0.07
10/4/2023 15:20:14.450,0.828,-0.793,0.09
10/4/2023 15:20:14.460,0.824,-0.785,0.102
10/4/2023 15:20:14.470,0.828,-0.781,0.117
10/4/2023 15:20:14.480,0.844,-0.777,0.121
10/4/2023 15:20:14.490,0.867,-0.77,0.113
10/4/2023 15:20:14.500,0.891,-0.742,0.094
10/4/2023 15:20:14.510,0.941,-0.711,0.082
10/4/2023 15:20:14.520,1.004,-0.668,0.059
10/4/2023 15:20:14.530,1.078,-0.621,0.031
10/4/2023 15:20:14.540,1.156,-0.563,-0.004
10/4/2023 15:20:14.550,1.246,-0.512,-0.047
10/4/2023 15:20:14.560,1.336,-0.469,-0.09
10/4/2023 15:20:14.570,1.422,-0.426,-0.137
10/4/2023 15:20:14.580,1.504,-0.391,-0.18
10/4/2023 15:20:14.590,1.586,-0.348,-0.207
10/4/2023 15:20:14.600,1.664,-0.301,-0.23
10/4/2023 15:20:14.610,1.727,-0.254,-0.262
10/4/2023 15:20:14.620,1.773,-0.211,-0.297
10/4/2023 15:20:14.630,1.828,-0.168,-0.336
10/4/2023 15:20:14.640,1.914,-0.137,-0.379
10/4/2023 15:20:14.650,2.047,-0.113,-0.438
10/4/2023 15:20:14.660,2.16,-0.086,-0.5
10/4/2023 15:20:14.670,2.129,-0.055,-0.543
10/4/2023 15:20:14.680,2.023,-0.02,-0.574
10/4/2023 15:20:14.690,1.906,0.031,-0.586
10/4/2023 15:20:14.700,1.801,0.082,-0.574
10/4/2023 15:20:14.710,1.703,0.125,-0.563
10/4/2023 15:20:14.720,1.613,0.16,-0.539
10/4/2023 15:20:14.730,1.523,0.195,-0.516
10/4/2023 15:20:14.740,1.438,0.219,-0.488
10/4/2023 15:20:14.750,1.375,0.227,-0.473
10/4/2023 15:20:14.760,1.313,0.23,-0.465
10/4/2023 15:20:14.770,1.25,0.23,-0.461
10/4/2023 15:20:14.780,1.195,0.234,-0.449
10/4/2023 15:20:14.790,1.137,0.246,-0.43
10/4/2023 15:20:14.800,1.086,0.254,-0.422
10/4/2023 15:20:14.810,1.055,0.266,-0.406
10/4/2023 15:20:14.820,1.027,0.273,-0.398
10/4/2023 15:20:14.830,1.004,0.281,-0.391
10/4/2023 15:20:14.840,0.984,0.281,-0.387
10/4/2023 15:20:14.850,0.965,0.277,-0.379
10/4/2023 15:20:14.860,0.945,0.266,-0.367
10/4/2023 15:20:14.870,0.922,0.25,-0.352
10/4/2023 15:20:14.880,0.895,0.234,-0.336
10/4/2023 15:20:14.890,0.875,0.211,-0.316
10/4/2023 15:20:14.900,0.867,0.191,-0.301
10/4/2023 15:20:14.910,0.867,0.168,-0.285
10/4/2023 15:20:14.920,0.867,0.152,-0.281
10/4/2023 15:20:14.930,0.863,0.137,-0.277
10/4/2023 15:20:14.940,0.859,0.129,-0.266
10/4/2023 15:20:14.950,0.852,0.125,-0.258
10/4/2023 15:20:14.960,0.848,0.129,-0.254
10/4/2023 15:20:14.970,0.852,0.133,-0.246
10/4/2023 15:20:14.980,0.859,0.133,-0.238
10/4/2023 15:20:14.990,0.867,0.141,-0.234
10/4/2023 15:20:15.000,0.871,0.152,-0.238
10/4/2023 15:20:15.010,0.891,0.148,-0.23
10/4/2023 15:20:15.020,0.918,0.156,-0.234
10/4/2023 15:20:15.030,0.945,0.168,-0.23
10/4/2023 15:20:15.040,0.984,0.184,-0.234
10/4/2023 15:20:15.050,1.023,0.191,-0.238
10/4/2023 15:20:15.060,1.066,0.219,-0.234
10/4/2023 15:20:15.070,1.102,0.242,-0.215
10/4/2023 15:20:15.080,1.129,0.273,-0.188
10/4/2023 15:20:15.090,1.152,0.309,-0.148
10/4/2023 15:20:15.100,1.18,0.359,-0.105
10/4/2023 15:20:15.110,1.215,0.41,-0.066
10/4/2023 15:20:15.120,1.262,0.449,-0.039
10/4/2023 15:20:15.130,1.305,0.488,-0.016
10/4/2023 15:20:15.140,1.34,0.523,0.016
10/4/2023 15:20:15.150,1.371,0.563,0.043
10/4/2023 15:20:15.160,1.402,0.586,0.059
10/4/2023 15:20:15.170,1.418,0.602,0.066
10/4/2023 15:20:15.180,1.426,0.602,0.07
10/4/2023 15:20:15.190,1.422,0.586,0.082
10/4/2023 15:20:15.200,1.406,0.586,0.105
10/4/2023 15:20:15.210,1.383,0.598,0.145
10/4/2023 15:20:15.220,1.359,0.621,0.191
10/4/2023 15:20:15.230,1.359,0.648,0.242
10/4/2023 15:20:15.240,1.391,0.691,0.301
10/4/2023 15:20:15.250,1.426,0.742,0.363
10/4/2023 15:20:15.260,1.426,0.777,0.402
10/4/2023 15:20:15.270,1.406,0.797,0.434
10/4/2023 15:20:15.280,1.406,0.816,0.465
10/4/2023 15:20:15.290,1.414,0.828,0.496
10/4/2023 15:20:15.300,1.41,0.832,0.543
10/4/2023 15:20:15.310,1.379,0.797,0.586
10/4/2023 15:20:15.320,1.332,0.754,0.629
10/4/2023 15:20:15.330,1.273,0.684,0.656
10/4/2023 15:20:15.340,1.223,0.602,0.668
10/4/2023 15:20:15.350,1.176,0.508,0.656
10/4/2023 15:20:15.360,1.141,0.414,0.633
10/4/2023 15:20:15.370,1.133,0.336,0.594
10/4/2023 15:20:15.380,1.16,0.289,0.543
10/4/2023 15:20:15.390,1.203,0.281,0.484
10/4/2023 15:20:15.400,1.25,0.301,0.422
10/4/2023 15:20:15.410,1.297,0.313,0.375
10/4/2023 15:20:15.420,1.324,0.313,0.336
10/4/2023 15:20:15.430,1.344,0.305,0.313
10/4/2023 15:20:15.440,1.344,0.289,0.285
10/4/2023 15:20:15.450,1.328,0.277,0.258
10/4/2023 15:20:15.460,1.316,0.266,0.227
10/4/2023 15:20:15.470,1.324,0.246,0.199
10/4/2023 15:20:15.480,1.328,0.227,0.191
10/4/2023 15:20:15.490,1.32,0.199,0.191
10/4/2023 15:20:15.500,1.309,0.172,0.184
10/4/2023 15:20:15.510,1.313,0.145,0.184
10/4/2023 15:20:15.520,1.301,0.125,0.168
10/4/2023 15:20:15.530,1.27,0.117,0.156
10/4/2023 15:20:15.540,1.242,0.109,0.148
10/4/2023 15:20:15.550,1.215,0.098,0.137
10/4/2023 15:20:15.560,1.191,0.09,0.125
10/4/2023 15:20:15.570,1.164,0.074,0.125
10/4/2023 15:20:15.580,1.145,0.059,0.145
10/4/2023 15:20:15.590,1.137,0.051,0.137
10/4/2023 15:20:15.600,1.129,0.047,0.125
10/4/2023 15:20:15.610,1.105,0.043,0.102
10/4/2023 15:20:15.620,1.098,0.043,0.082
10/4/2023 15:20:15.630,1.086,0.047,0.07
10/4/2023 15:20:15.640,1.074,0.051,0.055
10/4/2023 15:20:15.650,1.051,0.051,0.055
10/4/2023 15:20:15.660,1.043,0.047,0.055
10/4/2023 15:20:15.670,1.027,0.031,0.063
10/4/2023 15:20:15.680,1.02,-0.016,0.07
10/4/2023 15:20:15.690,1.02,-0.066,0.066
10/4/2023 15:20:15.700,1.012,-0.105,0.055
10/4/2023 15:20:15.710,0.977,-0.133,0.027
10/4/2023 15:20:15.720,0.938,-0.164,0.012
10/4/2023 15:20:15.730,0.914,-0.18,0.012
10/4/2023 15:20:15.740,0.906,-0.172,0.012
10/4/2023 15:20:15.750,0.902,-0.148,0.023
10/4/2023 15:20:15.760,0.883,-0.133,0.031
10/4/2023 15:20:15.770,0.852,-0.129,0.047
10/4/2023 15:20:15.780,0.832,-0.133,0.055
10/4/2023 15:20:15.790,0.832,-0.133,0.066
10/4/2023 15:20:15.800,0.828,-0.145,0.074
10/4/2023 15:20:15.810,0.84,-0.168,0.078
10/4/2023 15:20:15.820,0.941,-0.188,0.027
10/4/2023 15:20:15.830,1.172,-0.168,-0.031
10/4/2023 15:20:15.840,1.328,-0.133,-0.094
10/4/2023 15:20:15.850,1.195,-0.117,-0.121
10/4/2023 15:20:15.860,0.957,-0.121,-0.113
10/4/2023 15:20:15.870,0.84,-0.129,-0.098
10/4/2023 15:20:15.880,0.91,-0.113,-0.074
10/4/2023 15:20:15.890,1.063,-0.063,-0.051
10/4/2023 15:20:15.900,1.16,-0.004,-0.023
10/4/2023 15:20:15.910,1.145,0.035,0.016
10/4/2023 15:20:15.920,1.082,0.043,0.051
10/4/2023 15:20:15.930,1.051,0.035,0.07
10/4/2023 15:20:15.940,1.063,0.027,0.086
10/4/2023 15:20:15.950,1.094,0.02,0.094
10/4/2023 15:20:15.960,1.113,0.02,0.098
10/4/2023 15:20:15.970,1.117,0.02,0.102
10/4/2023 15:20:15.980,1.125,0.035,0.105
10/4/2023 15:20:15.990,1.133,0.047,0.105
10/4/2023 15:20:16.000,1.129,0.066,0.117
10/4/2023 15:20:16.010,1.145,0.074,0.129
10/4/2023 15:20:16.020,1.148,0.078,0.125
10/4/2023 15:20:16.030,1.16,0.078,0.117
10/4/2023 15:20:16.040,1.164,0.09,0.109
10/4/2023 15:20:16.050,1.164,0.105,0.105
10/4/2023 15:20:16.060,1.148,0.121,0.109
10/4/2023 15:20:16.070,1.133,0.141,0.121
10/4/2023 15:20:16.080,1.117,0.156,0.137
10/4/2023 15:20:16.090,1.105,0.176,0.148
10/4/2023 15:20:16.100,1.098,0.203,0.16
10/4/2023 15:20:16.110,1.09,0.234,0.156
10/4/2023 15:20:16.120,1.078,0.266,0.152
10/4/2023 15:20:16.130,1.074,0.293,0.148
10/4/2023 15:20:16.140,1.066,0.313,0.145
10/4/2023 15:20:16.150,1.059,0.344,0.152
10/4/2023 15:20:16.160,1.051,0.371,0.176
10/4/2023 15:20:16.170,1.035,0.391,0.199
10/4/2023 15:20:16.180,1.012,0.402,0.223
10/4/2023 15:20:16.190,0.988,0.406,0.238
10/4/2023 15:20:16.200,0.961,0.414,0.246
10/4/2023 15:20:16.210,0.941,0.422,0.258
10/4/2023 15:20:16.220,0.938,0.434,0.254
10/4/2023 15:20:16.230,0.949,0.457,0.258
10/4/2023 15:20:16.240,0.977,0.484,0.277
10/4/2023 15:20:16.250,1.008,0.516,0.305
10/4/2023 15:20:16.260,1.035,0.535,0.34
10/4/2023 15:20:16.270,1.07,0.547,0.355
10/4/2023 15:20:16.280,1.105,0.551,0.355
10/4/2023 15:20:16.290,1.152,0.574,0.344
10/4/2023 15:20:16.300,1.195,0.598,0.328
10/4/2023 15:20:16.310,1.234,0.609,0.32
10/4/2023 15:20:16.320,1.242,0.602,0.332
10/4/2023 15:20:16.330,1.238,0.57,0.344
10/4/2023 15:20:16.340,1.293,0.559,0.348
10/4/2023 15:20:16.350,1.426,0.633,0.387
10/4/2023 15:20:16.360,1.57,0.742,0.441
10/4/2023 15:20:16.370,1.648,0.836,0.441
10/4/2023 15:20:16.380,1.656,0.875,0.387
10/4/2023 15:20:16.390,1.684,0.863,0.289
10/4/2023 15:20:16.400,1.793,0.875,0.176
10/4/2023 15:20:16.410,1.973,0.941,0.059
10/4/2023 15:20:16.420,2.184,1.035,-0.09
10/4/2023 15:20:16.430,2.383,1.086,-0.203
10/4/2023 15:20:16.440,2.531,1.063,-0.289
10/4/2023 15:20:16.450,2.633,0.984,-0.359
10/4/2023 15:20:16.460,2.727,0.895,-0.41
10/4/2023 15:20:16.470,2.828,0.82,-0.434
10/4/2023 15:20:16.480,2.902,0.785,-0.441
10/4/2023 15:20:16.490,2.914,0.828,-0.449
10/4/2023 15:20:16.500,2.855,0.934,-0.445
10/4/2023 15:20:16.510,2.805,0.992,-0.402
10/4/2023 15:20:16.520,2.754,0.965,-0.359
10/4/2023 15:20:16.530,2.68,0.871,-0.328
10/4/2023 15:20:16.540,2.559,0.793,-0.32
10/4/2023 15:20:16.550,2.398,0.754,-0.355
10/4/2023 15:20:16.560,2.215,0.766,-0.398
10/4/2023 15:20:16.570,2.02,0.773,-0.426
10/4/2023 15:20:16.580,1.809,0.691,-0.441
10/4/2023 15:20:16.590,1.609,0.531,-0.43
10/4/2023 15:20:16.600,1.441,0.363,-0.387
10/4/2023 15:20:16.610,1.281,0.23,-0.344
10/4/2023 15:20:16.620,1.141,0.156,-0.297
10/4/2023 15:20:16.630,1.004,0.141,-0.27
10/4/2023 15:20:16.640,0.871,0.141,-0.254
10/4/2023 15:20:16.650,0.734,0.125,-0.246
10/4/2023 15:20:16.660,0.621,0.105,-0.234
10/4/2023 15:20:16.670,0.504,0.078,-0.227
10/4/2023 15:20:16.680,0.391,0.055,-0.207
10/4/2023 15:20:16.690,0.293,0.035,-0.188
10/4/2023 15:20:16.700,0.199,0.004,-0.184
10/4/2023 15:20:16.710,0.125,-0.039,-0.191
10/4/2023 15:20:16.720,0.066,-0.082,-0.195
10/4/2023 15:20:16.730,0.02,-0.133,-0.207
10/4/2023 15:20:16.740,-0.02,-0.188,-0.215
10/4/2023 15:20:16.750,-0.051,-0.234,-0.215
10/4/2023 15:20:16.760,-0.082,-0.262,-0.219
10/4/2023 15:20:16.770,-0.113,-0.285,-0.219
10/4/2023 15:20:16.780,-0.137,-0.301,-0.215
10/4/2023 15:20:16.790,-0.137,-0.309,-0.199
10/4/2023 15:20:16.800,-0.133,-0.324,-0.18
10/4/2023 15:20:16.810,-0.121,-0.332,-0.16
10/4/2023 15:20:16.820,-0.098,-0.34,-0.152
10/4/2023 15:20:16.830,-0.074,-0.332,-0.145
10/4/2023 15:20:16.840,-0.039,-0.316,-0.129
10/4/2023 15:20:16.850,-0.004,-0.316,-0.117
10/4/2023 15:20:16.860,0.02,-0.32,-0.102
10/4/2023 15:20:16.870,0.059,-0.328,-0.102
10/4/2023 15:20:16.880,0.125,-0.324,-0.109
10/4/2023 15:20:16.890,0.211,-0.32,-0.133
10/4/2023 15:20:16.900,0.332,-0.305,-0.168
10/4/2023 15:20:16.910,0.5,-0.27,-0.188
10/4/2023 15:20:16.920,0.738,-0.227,-0.199
10/4/2023 15:20:16.930,0.992,-0.188,-0.246
10/4/2023 15:20:16.940,1.207,-0.148,-0.332
10/4/2023 15:20:16.950,1.363,-0.117,-0.414
10/4/2023 15:20:16.960,1.543,-0.094,-0.473
10/4/2023 15:20:16.970,1.809,-0.086,-0.52
10/4/2023 15:20:16.980,2.125,-0.066,-0.574
10/4/2023 15:20:16.990,2.461,0.02,-0.645
10/4/2023 15:20:17.000,2.773,0.148,-0.699
10/4/2023 15:20:17.010,3.074,0.293,-0.746
10/4/2023 15:20:17.020,3.328,0.441,-0.758
10/4/2023 15:20:17.030,3.621,0.605,-0.613
10/4/2023 15:20:17.040,3.863,0.781,-0.324
10/4/2023 15:20:17.050,4.012,0.867,-0.012
10/4/2023 15:20:17.060,4.051,0.809,0.199
10/4/2023 15:20:17.070,3.98,0.637,0.207
10/4/2023 15:20:17.080,3.906,0.461,0.012
10/4/2023 15:20:17.090,3.945,0.414,-0.227
10/4/2023 15:20:17.100,4.012,0.504,-0.234
10/4/2023 15:20:17.110,3.898,0.586,-0.215
10/4/2023 15:20:17.120,3.43,0.781,-0.328
10/4/2023 15:20:17.130,2.844,1.082,-0.391
10/4/2023 15:20:17.140,2.332,0.922,-0.547
10/4/2023 15:20:17.150,2.035,0.59,-0.695
10/4/2023 15:20:17.160,1.941,0.516,-0.773
10/4/2023 15:20:17.170,1.965,0.523,-0.73
10/4/2023 15:20:17.180,1.98,0.484,-0.621
10/4/2023 15:20:17.190,2.016,0.422,-0.473
10/4/2023 15:20:17.200,2.074,0.367,-0.305
10/4/2023 15:20:17.210,2.055,0.332,-0.129
10/4/2023 15:20:17.220,1.922,0.297,0.047
10/4/2023 15:20:17.230,1.727,0.289,0.195
10/4/2023 15:20:17.240,1.539,0.336,0.273
10/4/2023 15:20:17.250,1.379,0.418,0.277
10/4/2023 15:20:17.260,1.234,0.504,0.223
10/4/2023 15:20:17.270,1.117,0.57,0.16
10/4/2023 15:20:17.280,1.027,0.613,0.078
10/4/2023 15:20:17.290,0.977,0.699,-0.004
10/4/2023 15:20:17.300,0.914,0.883,-0.047
10/4/2023 15:20:17.310,0.82,1.148,-0.059
10/4/2023 15:20:17.320,0.715,1.391,-0.043
10/4/2023 15:20:17.330,0.656,1.492,-0.008
10/4/2023 15:20:17.340,0.621,1.441,0.012
10/4/2023 15:20:17.350,0.633,1.32,0.004
10/4/2023 15:20:17.360,0.676,1.27,-0.004
10/4/2023 15:20:17.370,0.754,1.336,0.02
10/4/2023 15:20:17.380,0.836,1.43,0.047
10/4/2023 15:20:17.390,0.91,1.43,0.086
10/4/2023 15:20:17.400,0.98,1.281,0.121
10/4/2023 15:20:17.410,1.078,1.074,0.141
10/4/2023 15:20:17.420,1.188,0.953,0.188
10/4/2023 15:20:17.430,1.277,0.938,0.258
10/4/2023 15:20:17.440,1.297,0.961,0.32
10/4/2023 15:20:17.450,1.266,0.957,0.344
10/4/2023 15:20:17.460,1.23,0.91,0.34
10/4/2023 15:20:17.470,1.258,0.828,0.32
10/4/2023 15:20:17.480,1.391,0.77,0.277
10/4/2023 15:20:17.490,1.691,0.797,0.195
10/4/2023 15:20:17.500,2.293,0.949,0.086
10/4/2023 15:20:17.510,3.27,1.148,-0.07
10/4/2023 15:20:17.520,4.137,1.172,-0.285
10/4/2023 15:20:17.530,4.637,0.93,-0.457
10/4/2023 15:20:17.540,4.895,0.605,-0.625
10/4/2023 15:20:17.550,5.074,0.344,-0.746
10/4/2023 15:20:17.560,5.207,0.125,-0.773
10/4/2023 15:20:17.570,5.434,-0.074,-0.68
10/4/2023 15:20:17.580,5.73,-0.227,-0.637
10/4/2023 15:20:17.590,5.996,-0.328,-0.648
10/4/2023 15:20:17.600,5.984,-0.328,-0.645
10/4/2023 15:20:17.610,5.676,-0.34,-0.641
10/4/2023 15:20:17.620,5.227,-0.473,-0.609
10/4/2023 15:20:17.630,4.613,-0.613,-0.48
10/4/2023 15:20:17.640,3.965,-0.766,-0.344
10/4/2023 15:20:17.650,3.379,-0.914,-0.313
10/4/2023 15:20:17.660,2.832,-1.016,-0.289
10/4/2023 15:20:17.670,2.324,-1.035,-0.242
10/4/2023 15:20:17.680,1.902,-1.012,-0.25
10/4/2023 15:20:17.690,1.574,-1.016,-0.297
10/4/2023 15:20:17.700,1.293,-1.074,-0.348
10/4/2023 15:20:17.710,1.078,-1.105,-0.363
10/4/2023 15:20:17.720,0.895,-1.133,-0.422
10/4/2023 15:20:17.730,0.77,-1.188,-0.5
10/4/2023 15:20:17.740,0.703,-1.316,-0.602
10/4/2023 15:20:17.750,0.648,-1.488,-0.727
10/4/2023 15:20:17.760,0.551,-1.578,-0.754
10/4/2023 15:20:17.770,0.438,-1.473,-0.684
10/4/2023 15:20:17.780,0.344,-1.281,-0.602
10/4/2023 15:20:17.790,0.266,-1.082,-0.527
10/4/2023 15:20:17.800,0.203,-0.91,-0.461
10/4/2023 15:20:17.810,0.16,-0.793,-0.41
10/4/2023 15:20:17.820,0.141,-0.738,-0.406
10/4/2023 15:20:17.830,0.137,-0.742,-0.453
10/4/2023 15:20:17.840,0.137,-0.719,-0.473
10/4/2023 15:20:17.850,0.141,-0.664,-0.445
10/4/2023 15:20:17.860,0.137,-0.605,-0.406
10/4/2023 15:20:17.870,0.133,-0.539,-0.367
10/4/2023 15:20:17.880,0.141,-0.449,-0.316
10/4/2023 15:20:17.890,0.145,-0.375,-0.281
10/4/2023 15:20:17.900,0.172,-0.352,-0.27
10/4/2023 15:20:17.910,0.242,-0.383,-0.293
10/4/2023 15:20:17.920,0.371,-0.449,-0.391
10/4/2023 15:20:17.930,0.566,-0.449,-0.438
10/4/2023 15:20:17.940,0.762,-0.398,-0.414
10/4/2023 15:20:17.950,0.832,-0.34,-0.402
10/4/2023 15:20:17.960,0.813,-0.32,-0.398
10/4/2023 15:20:17.970,0.855,-0.328,-0.395
10/4/2023 15:20:17.980,1.082,-0.332,-0.406
10/4/2023 15:20:17.990,1.512,-0.281,-0.449
10/4/2023 15:20:18.000,2.016,-0.207,-0.488
10/4/2023 15:20:18.010,2.484,-0.094,-0.492
10/4/2023 15:20:18.020,2.805,0.063,-0.438
10/4/2023 15:20:18.030,3,0.207,-0.293
10/4/2023 15:20:18.040,3.109,0.195,0.031
10/4/2023 15:20:18.050,3.266,-0.047,0.285
10/4/2023 15:20:18.060,3.512,-0.379,0.254
10/4/2023 15:20:18.070,3.797,-0.809,0.09
10/4/2023 15:20:18.080,4.324,-1.215,-0.297
10/4/2023 15:20:18.090,5.277,-1.418,-0.73
10/4/2023 15:20:18.100,6.402,-1.211,-0.984
10/4/2023 15:20:18.110,7.016,-0.59,-0.875
10/4/2023 15:20:18.120,6.992,0.109,-0.473
10/4/2023 15:20:18.130,6.535,0.699,0.133
10/4/2023 15:20:18.140,5.641,1.027,0.613
10/4/2023 15:20:18.150,4.715,1.055,0.645
10/4/2023 15:20:18.160,3.832,0.785,0.445
10/4/2023 15:20:18.170,3.074,0.449,0.137
10/4/2023 15:20:18.180,2.535,0.152,-0.074
10/4/2023 15:20:18.190,2.195,-0.023,-0.148
10/4/2023 15:20:18.200,1.918,-0.105,-0.227
10/4/2023 15:20:18.210,1.703,-0.098,-0.352
10/4/2023 15:20:18.220,1.648,0,-0.504
10/4/2023 15:20:18.230,1.785,0.191,-0.566
10/4/2023 15:20:18.240,1.941,0.402,-0.527
10/4/2023 15:20:18.250,1.852,0.559,-0.457
10/4/2023 15:20:18.260,1.508,0.66,-0.395
10/4/2023 15:20:18.270,1.109,0.777,-0.414
10/4/2023 15:20:18.280,0.777,0.922,-0.594
10/4/2023 15:20:18.290,0.5,1.051,-0.844
10/4/2023 15:20:18.300,0.25,1.105,-1.055
10/4/2023 15:20:18.310,0.039,1.156,-1.109
10/4/2023 15:20:18.320,-0.121,1.336,-0.957
10/4/2023 15:20:18.330,-0.191,1.629,-0.883
10/4/2023 15:20:18.340,-0.176,1.875,-0.895
10/4/2023 15:20:18.350,-0.094,1.898,-0.922
10/4/2023 15:20:18.360,0.043,1.754,-0.859
10/4/2023 15:20:18.370,0.137,1.52,-0.699
10/4/2023 15:20:18.380,0.09,1.32,-0.566
10/4/2023 15:20:18.390,-0.055,1.18,-0.484
10/4/2023 15:20:18.400,-0.18,1.043,-0.43
10/4/2023 15:20:18.410,-0.223,0.91,-0.371
10/4/2023 15:20:18.420,-0.172,0.809,-0.313
10/4/2023 15:20:18.430,-0.059,0.766,-0.25
10/4/2023 15:20:18.440,0.066,0.762,-0.188
10/4/2023 15:20:18.450,0.176,0.777,-0.191
10/4/2023 15:20:18.460,0.281,0.801,-0.336
10/4/2023 15:20:18.470,0.422,0.898,-0.496
10/4/2023 15:20:18.480,0.699,1.105,-0.543
10/4/2023 15:20:18.490,1.246,1.387,-0.406
10/4/2023 15:20:18.500,2.031,1.492,-0.266
10/4/2023 15:20:18.510,2.664,1.355,-0.332
10/4/2023 15:20:18.520,2.828,0.879,-0.379
10/4/2023 15:20:18.530,2.758,0.359,-0.359
10/4/2023 15:20:18.540,2.684,0.16,-0.316
10/4/2023 15:20:18.550,2.695,0.145,-0.277
10/4/2023 15:20:18.560,2.777,0.137,-0.254
10/4/2023 15:20:18.570,2.828,0.102,-0.195
10/4/2023 15:20:18.580,2.906,0.039,-0.121
10/4/2023 15:20:18.590,3.027,-0.07,-0.125
10/4/2023 15:20:18.600,3.199,-0.172,-0.227
10/4/2023 15:20:18.610,3.301,-0.176,-0.332
10/4/2023 15:20:18.620,3.23,-0.07,-0.438
10/4/2023 15:20:18.630,3.164,0.117,-0.531
10/4/2023 15:20:18.640,3.262,0.391,-0.656
10/4/2023 15:20:18.650,3.438,0.621,-0.852
10/4/2023 15:20:18.660,3.703,0.809,-1.141
10/4/2023 15:20:18.670,4.074,1.02,-1.418
10/4/2023 15:20:18.680,4.207,1.012,-1.531
10/4/2023 15:20:18.690,4.129,0.824,-1.469
10/4/2023 15:20:18.700,3.957,0.688,-1.371
10/4/2023 15:20:18.710,3.668,0.52,-1.23
10/4/2023 15:20:18.720,3.48,0.313,-0.965
10/4/2023 15:20:18.730,3.535,0.129,-0.711
10/4/2023 15:20:18.740,3.742,-0.055,-0.613
10/4/2023 15:20:18.750,3.875,-0.164,-0.586
10/4/2023 15:20:18.760,3.648,-0.191,-0.484
10/4/2023 15:20:18.770,3.168,-0.23,-0.344
10/4/2023 15:20:18.780,2.68,-0.316,-0.285
10/4/2023 15:20:18.790,2.246,-0.328,-0.285
10/4/2023 15:20:18.800,1.887,-0.297,-0.25
10/4/2023 15:20:18.810,1.594,-0.305,-0.164
10/4/2023 15:20:18.820,1.391,-0.453,-0.098
10/4/2023 15:20:18.830,1.277,-0.691,-0.102
10/4/2023 15:20:18.840,1.172,-0.875,-0.133
10/4/2023 15:20:18.850,1.051,-0.98,-0.184
10/4/2023 15:20:18.860,0.902,-1.059,-0.242
10/4/2023 15:20:18.870,0.762,-1.117,-0.289
10/4/2023 15:20:18.880,0.648,-1.148,-0.309
10/4/2023 15:20:18.890,0.563,-1.219,-0.328
10/4/2023 15:20:18.900,0.48,-1.332,-0.336
10/4/2023 15:20:18.910,0.379,-1.336,-0.285
10/4/2023 15:20:18.920,0.254,-1.219,-0.207
10/4/2023 15:20:18.930,0.137,-1.098,-0.16
10/4/2023 15:20:18.940,0.051,-1.031,-0.16
10/4/2023 15:20:18.950,-0.004,-1.004,-0.164
10/4/2023 15:20:18.960,-0.027,-0.996,-0.168
10/4/2023 15:20:18.970,-0.035,-1.008,-0.211
10/4/2023 15:20:18.980,-0.035,-1.027,-0.262
10/4/2023 15:20:18.990,0,-1.008,-0.293
10/4/2023 15:20:19.000,0.047,-0.957,-0.297
10/4/2023 15:20:19.010,0.117,-0.859,-0.273
10/4/2023 15:20:19.020,0.152,-0.738,-0.238
10/4/2023 15:20:19.030,0.152,-0.629,-0.195
10/4/2023 15:20:19.040,0.141,-0.59,-0.176
10/4/2023 15:20:19.050,0.172,-0.613,-0.164
10/4/2023 15:20:19.060,0.289,-0.625,-0.133
10/4/2023 15:20:19.070,0.52,-0.555,-0.094
10/4/2023 15:20:19.080,0.867,-0.402,-0.09
10/4/2023 15:20:19.090,1.227,-0.242,-0.129
10/4/2023 15:20:19.100,1.5,-0.004,-0.188
10/4/2023 15:20:19.110,1.688,0.32,-0.289
10/4/2023 15:20:19.120,1.918,0.633,-0.402
10/4/2023 15:20:19.130,2.191,0.855,-0.488
10/4/2023 15:20:19.140,2.383,0.871,-0.527
10/4/2023 15:20:19.150,2.555,0.707,-0.477
10/4/2023 15:20:19.160,2.848,0.469,-0.332
10/4/2023 15:20:19.170,3.238,0.273,-0.188
10/4/2023 15:20:19.180,3.625,0.234,-0.094
10/4/2023 15:20:19.190,3.938,0.258,-0.152
10/4/2023 15:20:19.200,4.313,0.258,-0.465
10/4/2023 15:20:19.210,4.609,0.285,-0.723
10/4/2023 15:20:19.220,4.434,0.402,-0.73
10/4/2023 15:20:19.230,4.184,0.5,-0.637
10/4/2023 15:20:19.240,4.34,0.586,-0.516
10/4/2023 15:20:19.250,4.664,0.727,-0.164
10/4/2023 15:20:19.260,4.484,1,0.176
10/4/2023 15:20:19.270,3.934,1.316,0.289
10/4/2023 15:20:19.280,3.223,1.359,0.129
10/4/2023 15:20:19.290,2.586,1.137,-0.078
10/4/2023 15:20:19.300,2.188,0.797,-0.176
10/4/2023 15:20:19.310,1.949,0.441,-0.18
10/4/2023 15:20:19.320,1.789,0.18,-0.125
10/4/2023 15:20:19.330,1.656,-0.004,-0.082
10/4/2023 15:20:19.340,1.559,-0.109,-0.07
10/4/2023 15:20:19.350,1.48,-0.086,-0.063
10/4/2023 15:20:19.360,1.402,0.027,-0.016
10/4/2023 15:20:19.370,1.34,0.145,0.004
10/4/2023 15:20:19.380,1.262,0.242,-0.012
10/4/2023 15:20:19.390,1.129,0.301,-0.074
10/4/2023 15:20:19.400,0.949,0.336,-0.148
10/4/2023 15:20:19.410,0.742,0.363,-0.215
10/4/2023 15:20:19.420,0.516,0.395,-0.258
10/4/2023 15:20:19.430,0.281,0.387,-0.305
10/4/2023 15:20:19.440,0.055,0.34,-0.367
10/4/2023 15:20:19.450,-0.133,0.254,-0.457
10/4/2023 15:20:19.460,-0.223,0.184,-0.535
10/4/2023 15:20:19.470,-0.215,0.168,-0.535
10/4/2023 15:20:19.480,-0.133,0.219,-0.469
10/4/2023 15:20:19.490,-0.016,0.336,-0.395
10/4/2023 15:20:19.500,0.086,0.484,-0.301
10/4/2023 15:20:19.510,0.141,0.633,-0.184
10/4/2023 15:20:19.520,0.129,0.801,-0.082
10/4/2023 15:20:19.530,0.059,0.945,-0.043
10/4/2023 15:20:19.540,-0.023,1.023,-0.043
10/4/2023 15:20:19.550,-0.07,1.016,-0.063
10/4/2023 15:20:19.560,-0.066,0.945,-0.098
10/4/2023 15:20:19.570,-0.027,0.871,-0.109
10/4/2023 15:20:19.580,-0.016,0.828,-0.082
10/4/2023 15:20:19.590,-0.047,0.828,-0.02
10/4/2023 15:20:19.600,-0.078,0.844,0.027
10/4/2023 15:20:19.610,-0.035,0.832,-0.012
10/4/2023 15:20:19.620,0.113,0.777,-0.063
10/4/2023 15:20:19.630,0.359,0.738,-0.102
10/4/2023 15:20:19.640,0.707,0.777,-0.121
10/4/2023 15:20:19.650,1.176,0.879,-0.094
10/4/2023 15:20:19.660,1.738,0.973,-0.195
10/4/2023 15:20:19.670,2.262,0.898,-0.367
10/4/2023 15:20:19.680,2.52,0.648,-0.48
10/4/2023 15:20:19.690,2.504,0.492,-0.516
10/4/2023 15:20:19.700,2.402,0.457,-0.477
10/4/2023 15:20:19.710,2.41,0.391,-0.406
10/4/2023 15:20:19.720,2.516,0.195,-0.336
10/4/2023 15:20:19.730,2.586,-0.02,-0.25
10/4/2023 15:20:19.740,2.57,-0.094,-0.137
10/4/2023 15:20:19.750,2.504,0.047,-0.004
10/4/2023 15:20:19.760,2.453,0.313,0.059
10/4/2023 15:20:19.770,2.52,0.535,0
10/4/2023 15:20:19.780,2.734,0.652,-0.133
10/4/2023 15:20:19.790,3.074,0.695,-0.332
10/4/2023 15:20:19.800,3.512,1.047,-0.66
10/4/2023 15:20:19.810,3.902,1.762,-1.223
10/4/2023 15:20:19.820,3.77,2.516,-1.441
10/4/2023 15:20:19.830,4.059,-0.57,-0.883
10/4/2023 15:20:19.840,3.52,-1.867,-0.871
10/4/2023 15:20:19.850,3.105,-0.547,-0.395
10/4/2023 15:20:19.860,3.5,0.434,-0.73
10/4/2023 15:20:19.870,3.816,0.766,-0.984
10/4/2023 15:20:19.880,3.461,0.832,-0.859
10/4/2023 15:20:19.890,3.113,0.699,-0.676
10/4/2023 15:20:19.900,3.027,0.293,-0.59
10/4/2023 15:20:19.910,2.836,-0.141,-0.492
10/4/2023 15:20:19.920,2.398,-0.516,-0.375
10/4/2023 15:20:19.930,1.938,-0.789,-0.254
10/4/2023 15:20:19.940,1.535,-0.859,-0.172
10/4/2023 15:20:19.950,1.207,-0.719,-0.145
10/4/2023 15:20:19.960,1.008,-0.52,-0.141
10/4/2023 15:20:19.970,0.887,-0.418,-0.16
10/4/2023 15:20:19.980,0.793,-0.449,-0.203
10/4/2023 15:20:19.990,0.695,-0.578,-0.223
10/4/2023 15:20:20.000,0.586,-0.75,-0.18
10/4/2023 15:20:20.010,0.52,-0.902,-0.141
10/4/2023 15:20:20.020,0.484,-0.984,-0.133
10/4/2023 15:20:20.030,0.488,-0.977,-0.148
10/4/2023 15:20:20.040,0.488,-0.914,-0.188
10/4/2023 15:20:20.050,0.449,-0.859,-0.266
10/4/2023 15:20:20.060,0.363,-0.832,-0.324
10/4/2023 15:20:20.070,0.266,-0.777,-0.328
10/4/2023 15:20:20.080,0.176,-0.68,-0.285
10/4/2023 15:20:20.090,0.133,-0.613,-0.246
10/4/2023 15:20:20.100,0.117,-0.633,-0.262
10/4/2023 15:20:20.110,0.113,-0.695,-0.297
10/4/2023 15:20:20.120,0.105,-0.742,-0.313
10/4/2023 15:20:20.130,0.09,-0.75,-0.309
10/4/2023 15:20:20.140,0.07,-0.73,-0.254
10/4/2023 15:20:20.150,0.066,-0.699,-0.16
10/4/2023 15:20:20.160,0.086,-0.688,-0.086
10/4/2023 15:20:20.170,0.117,-0.723,-0.074
10/4/2023 15:20:20.180,0.172,-0.738,-0.117
10/4/2023 15:20:20.190,0.254,-0.723,-0.18
10/4/2023 15:20:20.200,0.363,-0.688,-0.258
10/4/2023 15:20:20.210,0.504,-0.633,-0.32
10/4/2023 15:20:20.220,0.691,-0.578,-0.344
10/4/2023 15:20:20.230,0.922,-0.492,-0.324
10/4/2023 15:20:20.240,1.148,-0.359,-0.27
10/4/2023 15:20:20.250,1.383,-0.203,-0.203
10/4/2023 15:20:20.260,1.637,-0.047,-0.148
10/4/2023 15:20:20.270,1.906,0.055,-0.105
10/4/2023 15:20:20.280,2.203,0.133,-0.055
10/4/2023 15:20:20.290,2.551,0.207,-0.055
10/4/2023 15:20:20.300,3.031,0.277,-0.113
10/4/2023 15:20:20.310,3.586,0.285,-0.328
10/4/2023 15:20:20.320,4.227,0.328,-0.617
10/4/2023 15:20:20.330,4.73,0.367,-0.934
10/4/2023 15:20:20.340,4.996,0.441,-1.18
10/4/2023 15:20:20.350,5.227,0.488,-1.207
10/4/2023 15:20:20.360,5.434,-0.102,-0.57
10/4/2023 15:20:20.370,6.336,0.496,-0.863
10/4/2023 15:20:20.380,6.492,1.383,-0.398
10/4/2023 15:20:20.390,5.398,2.871,0.223
10/4/2023 15:20:20.400,3.645,2.883,0.398
10/4/2023 15:20:20.410,2.711,2.207,-0.012
10/4/2023 15:20:20.420,2.301,1.707,-0.41
10/4/2023 15:20:20.430,2.082,1.156,-0.52
10/4/2023 15:20:20.440,2.043,0.539,-0.398
10/4/2023 15:20:20.450,2.027,0.09,-0.18
10/4/2023 15:20:20.460,1.891,-0.227,0.102
10/4/2023 15:20:20.470,1.629,-0.402,0.184
10/4/2023 15:20:20.480,1.348,-0.488,0.078
10/4/2023 15:20:20.490,1.16,-0.48,-0.086
10/4/2023 15:20:20.500,1.063,-0.379,-0.215
10/4/2023 15:20:20.510,1.039,-0.25,-0.316
10/4/2023 15:20:20.520,1.063,0.012,-0.363
10/4/2023 15:20:20.530,1.105,0.48,-0.348
10/4/2023 15:20:20.540,1.027,1.02,-0.332
10/4/2023 15:20:20.550,0.625,1.531,-0.328
10/4/2023 15:20:20.560,-0.004,2.016,-0.297
10/4/2023 15:20:20.570,-0.281,2.223,-0.266
10/4/2023 15:20:20.580,-0.199,1.938,-0.086
10/4/2023 15:20:20.590,0.008,1.449,0.168
10/4/2023 15:20:20.600,0.105,1.035,0.313
10/4/2023 15:20:20.610,0.082,0.832,0.359
10/4/2023 15:20:20.620,0.027,0.801,0.375
10/4/2023 15:20:20.630,-0.008,0.84,0.402
10/4/2023 15:20:20.640,-0.023,0.848,0.43
10/4/2023 15:20:20.650,-0.027,0.789,0.465
10/4/2023 15:20:20.660,-0.043,0.676,0.5
10/4/2023 15:20:20.670,-0.082,0.578,0.52
10/4/2023 15:20:20.680,-0.121,0.512,0.535
10/4/2023 15:20:20.690,-0.125,0.496,0.52
10/4/2023 15:20:20.700,-0.09,0.508,0.477
10/4/2023 15:20:20.710,-0.039,0.516,0.402
10/4/2023 15:20:20.720,0.012,0.508,0.297
10/4/2023 15:20:20.730,0.07,0.488,0.191
10/4/2023 15:20:20.740,0.148,0.453,0.098
10/4/2023 15:20:20.750,0.254,0.438,0.027
10/4/2023 15:20:20.760,0.395,0.434,-0.016
10/4/2023 15:20:20.770,0.602,0.41,-0.156
10/4/2023 15:20:20.780,1.137,0.43,-0.328
10/4/2023 15:20:20.790,2.473,0.438,-0.371
10/4/2023 15:20:20.800,4.277,0.582,-0.668
10/4/2023 15:20:20.810,4.289,0.195,-0.598
10/4/2023 15:20:20.820,4.125,0.148,-0.258
10/4/2023 15:20:20.830,4.16,0.242,-0.238
10/4/2023 15:20:20.840,4.055,0.137,-0.195
10/4/2023 15:20:20.850,4.125,0.02,-0.141
10/4/2023 15:20:20.860,4.32,-0.07,-0.105
10/4/2023 15:20:20.870,4.59,-0.137,-0.113
10/4/2023 15:20:20.880,4.691,-0.227,-0.113
10/4/2023 15:20:20.890,4.504,-0.328,-0.07
10/4/2023 15:20:20.900,4.203,-0.387,-0.059
10/4/2023 15:20:20.910,3.887,-0.41,-0.113
10/4/2023 15:20:20.920,3.613,-0.449,-0.215
10/4/2023 15:20:20.930,3.301,-0.516,-0.316
10/4/2023 15:20:20.940,2.859,-0.605,-0.352
10/4/2023 15:20:20.950,2.301,-0.68,-0.27
10/4/2023 15:20:20.960,1.727,-0.715,-0.156
10/4/2023 15:20:20.970,1.172,-0.832,-0.008
10/4/2023 15:20:20.980,0.727,-1.137,0.055
10/4/2023 15:20:20.990,0.367,-1.617,-0.023
10/4/2023 15:20:21.000,-0.027,-2.035,-0.145
10/4/2023 15:20:21.010,-0.457,-2.27,-0.191
10/4/2023 15:20:21.020,-0.961,-2.465,-0.164
10/4/2023 15:20:21.030,-1.363,-2.547,-0.234
10/4/2023 15:20:21.040,-1.391,-2.383,-0.359
10/4/2023 15:20:21.050,-1.023,-2.031,-0.414
10/4/2023 15:20:21.060,-0.555,-1.637,-0.391
10/4/2023 15:20:21.070,-0.188,-1.336,-0.348
10/4/2023 15:20:21.080,0.027,-1.145,-0.336
10/4/2023 15:20:21.090,0.121,-0.965,-0.363
10/4/2023 15:20:21.100,0.16,-0.746,-0.387
10/4/2023 15:20:21.110,0.215,-0.555,-0.383
10/4/2023 15:20:21.120,0.313,-0.449,-0.422
10/4/2023 15:20:21.130,0.461,-0.402,-0.473
10/4/2023 15:20:21.140,0.672,-0.355,-0.449
10/4/2023 15:20:21.150,0.895,-0.289,-0.379
10/4/2023 15:20:21.160,1.078,-0.188,-0.336
10/4/2023 15:20:21.170,1.145,-0.063,-0.32
10/4/2023 15:20:21.180,1.109,0.059,-0.32
10/4/2023 15:20:21.190,1.02,0.16,-0.305
10/4/2023 15:20:21.200,0.961,0.262,-0.246
10/4/2023 15:20:21.210,0.949,0.34,-0.133
10/4/2023 15:20:21.220,1.07,0.332,0.012
10/4/2023 15:20:21.230,1.465,0.266,-0.027
10/4/2023 15:20:21.240,1.914,0.227,-0.25
10/4/2023 15:20:21.250,1.914,0.211,-0.316
10/4/2023 15:20:21.260,1.594,0.109,-0.102
10/4/2023 15:20:21.270,1.605,0.059,0.266
10/4/2023 15:20:21.280,1.953,0.117,0.523
10/4/2023 15:20:21.290,2.324,0.203,0.648
10/4/2023 15:20:21.300,2.598,0.254,0.809
10/4/2023 15:20:21.310,2.84,0.332,0.961
10/4/2023 15:20:21.320,3.129,0.414,1.031
10/4/2023 15:20:21.330,3.367,0.461,1.051
10/4/2023 15:20:21.340,3.488,0.414,1.086
10/4/2023 15:20:21.350,3.445,0.34,1.059
10/4/2023 15:20:21.360,3.262,0.406,0.965
10/4/2023 15:20:21.370,3.086,0.523,0.844
10/4/2023 15:20:21.380,2.93,0.402,0.828
10/4/2023 15:20:21.390,2.762,0.254,0.813
10/4/2023 15:20:21.400,2.559,0.234,0.777
10/4/2023 15:20:21.410,2.34,0.27,0.75
10/4/2023 15:20:21.420,2.109,0.281,0.742
10/4/2023 15:20:21.430,1.914,0.285,0.711
10/4/2023 15:20:21.440,1.754,0.305,0.688
10/4/2023 15:20:21.450,1.613,0.336,0.59
10/4/2023 15:20:21.460,1.465,0.34,0.484
10/4/2023 15:20:21.470,1.336,0.328,0.43
10/4/2023 15:20:21.480,1.215,0.336,0.367
10/4/2023 15:20:21.490,1.117,0.352,0.281
10/4/2023 15:20:21.500,1.043,0.398,0.203
10/4/2023 15:20:21.510,1.004,0.469,0.109
10/4/2023 15:20:21.520,0.973,0.59,-0.012
10/4/2023 15:20:21.530,0.941,0.711,-0.117
10/4/2023 15:20:21.540,0.887,0.742,-0.18
10/4/2023 15:20:21.550,0.828,0.668,-0.188
10/4/2023 15:20:21.560,0.77,0.547,-0.176
10/4/2023 15:20:21.570,0.715,0.465,-0.172
10/4/2023 15:20:21.580,0.676,0.434,-0.188
10/4/2023 15:20:21.590,0.648,0.41,-0.215
10/4/2023 15:20:21.600,0.637,0.406,-0.254
10/4/2023 15:20:21.610,0.633,0.402,-0.273
10/4/2023 15:20:21.620,0.633,0.367,-0.277
10/4/2023 15:20:21.630,0.633,0.332,-0.316
10/4/2023 15:20:21.640,0.641,0.336,-0.371
10/4/2023 15:20:21.650,0.672,0.375,-0.418
10/4/2023 15:20:21.660,0.703,0.398,-0.43
10/4/2023 15:20:21.670,0.73,0.391,-0.41
10/4/2023 15:20:21.680,0.758,0.355,-0.41
10/4/2023 15:20:21.690,0.777,0.301,-0.395
10/4/2023 15:20:21.700,0.781,0.211,-0.305
10/4/2023 15:20:21.710,0.785,0.098,-0.152
10/4/2023 15:20:21.720,0.801,0.004,-0.008
10/4/2023 15:20:21.730,0.785,-0.047,0.012
10/4/2023 15:20:21.740,0.668,-0.035,0.008
10/4/2023 15:20:21.750,0.457,0.027,0.168
10/4/2023 15:20:21.760,0.316,-0.063,0.402
10/4/2023 15:20:21.770,0.246,-0.32,0.594
10/4/2023 15:20:21.780,0.207,-0.469,0.711
10/4/2023 15:20:21.790,0.16,-0.508,0.797
10/4/2023 15:20:21.800,0.098,-0.531,0.969
10/4/2023 15:20:21.810,0.059,-0.613,1.141
10/4/2023 15:20:21.820,0.035,-0.773,1.266
10/4/2023 15:20:21.830,0.008,-0.949,1.395
10/4/2023 15:20:21.840,-0.027,-1.063,1.488
10/4/2023 15:20:21.850,-0.031,-1.066,1.508
10/4/2023 15:20:21.860,-0.008,-0.957,1.5
10/4/2023 15:20:21.870,0.02,-0.77,1.43
10/4/2023 15:20:21.880,0.039,-0.594,1.352
10/4/2023 15:20:21.890,0.051,-0.469,1.27
10/4/2023 15:20:21.900,0.047,-0.406,1.18
10/4/2023 15:20:21.910,0.035,-0.383,1.082
10/4/2023 15:20:21.920,0.039,-0.414,1.012
10/4/2023 15:20:21.930,0.082,-0.492,0.98
10/4/2023 15:20:21.940,0.152,-0.582,0.961
10/4/2023 15:20:21.950,0.211,-0.664,0.945
10/4/2023 15:20:21.960,0.242,-0.699,0.918
10/4/2023 15:20:21.970,0.25,-0.648,0.871
10/4/2023 15:20:21.980,0.223,-0.57,0.805
10/4/2023 15:20:21.990,0.191,-0.48,0.727
10/4/2023 15:20:22.000,0.145,-0.387,0.637
10/4/2023 15:20:22.010,0.109,-0.332,0.574
10/4/2023 15:20:22.020,0.078,-0.336,0.539
10/4/2023 15:20:22.030,0.055,-0.398,0.527
10/4/2023 15:20:22.040,0.059,-0.473,0.531
10/4/2023 15:20:22.050,0.078,-0.531,0.531
10/4/2023 15:20:22.060,0.098,-0.543,0.508
10/4/2023 15:20:22.070,0.113,-0.527,0.48
10/4/2023 15:20:22.080,0.129,-0.492,0.469
10/4/2023 15:20:22.090,0.148,-0.469,0.484
10/4/2023 15:20:22.100,0.184,-0.457,0.527
10/4/2023 15:20:22.110,0.23,-0.457,0.578
10/4/2023 15:20:22.120,0.273,-0.465,0.625
10/4/2023 15:20:22.130,0.309,-0.48,0.656
10/4/2023 15:20:22.140,0.32,-0.5,0.684
10/4/2023 15:20:22.150,0.316,-0.531,0.707
10/4/2023 15:20:22.160,0.32,-0.574,0.738
10/4/2023 15:20:22.170,0.324,-0.605,0.773
10/4/2023 15:20:22.180,0.34,-0.613,0.809
10/4/2023 15:20:22.190,0.359,-0.609,0.832
10/4/2023 15:20:22.200,0.383,-0.598,0.859
10/4/2023 15:20:22.210,0.387,-0.598,0.871
10/4/2023 15:20:22.220,0.375,-0.598,0.863
10/4/2023 15:20:22.230,0.355,-0.609,0.852
10/4/2023 15:20:22.240,0.34,-0.609,0.836
10/4/2023 15:20:22.250,0.332,-0.609,0.828
10/4/2023 15:20:22.260,0.32,-0.621,0.832
10/4/2023 15:20:22.270,0.305,-0.625,0.836
10/4/2023 15:20:22.280,0.285,-0.633,0.84
10/4/2023 15:20:22.290,0.258,-0.637,0.832
10/4/2023 15:20:22.300,0.234,-0.625,0.832
10/4/2023 15:20:22.310,0.219,-0.617,0.832
10/4/2023 15:20:22.320,0.215,-0.609,0.832
10/4/2023 15:20:22.330,0.207,-0.59,0.824
10/4/2023 15:20:22.340,0.199,-0.578,0.816
10/4/2023 15:20:22.350,0.195,-0.57,0.809
10/4/2023 15:20:22.360,0.191,-0.57,0.805
10/4/2023 15:20:22.370,0.188,-0.566,0.793
10/4/2023 15:20:22.380,0.18,-0.57,0.77
10/4/2023 15:20:22.390,0.168,-0.582,0.754
10/4/2023 15:20:22.400,0.16,-0.609,0.75
10/4/2023 15:20:22.410,0.156,-0.629,0.742
10/4/2023 15:20:22.420,0.152,-0.625,0.734
10/4/2023 15:20:22.430,0.152,-0.617,0.727
10/4/2023 15:20:22.440,0.152,-0.605,0.715
10/4/2023 15:20:22.450,0.145,-0.594,0.711
10/4/2023 15:20:22.460,0.137,-0.586,0.707
10/4/2023 15:20:22.470,0.148,-0.594,0.715
10/4/2023 15:20:22.480,0.16,-0.609,0.719
10/4/2023 15:20:22.490,0.164,-0.645,0.723
10/4/2023 15:20:22.500,0.156,-0.668,0.715
10/4/2023 15:20:22.510,0.164,-0.695,0.727
10/4/2023 15:20:22.520,0.156,-0.707,0.734
10/4/2023 15:20:22.530,0.137,-0.715,0.75
10/4/2023 15:20:22.540,0.109,-0.73,0.773
10/4/2023 15:20:22.550,0.086,-0.75,0.801
10/4/2023 15:20:22.560,0.086,-0.777,0.832
10/4/2023 15:20:22.570,0.102,-0.797,0.863
10/4/2023 15:20:22.580,0.129,-0.801,0.902
10/4/2023 15:20:22.590,0.156,-0.801,0.941
10/4/2023 15:20:22.600,0.184,-0.793,0.98
10/4/2023 15:20:22.610,0.191,-0.773,1.012
10/4/2023 15:20:22.620,0.168,-0.754,1.027
10/4/2023 15:20:22.630,0.074,-0.75,1.039
10/4/2023 15:20:22.640,-0.055,-0.781,1.055
10/4/2023 15:20:22.650,-0.125,-0.801,1.066
10/4/2023 15:20:22.660,-0.125,-0.762,1.113
10/4/2023 15:20:22.670,-0.059,-0.648,1.191
10/4/2023 15:20:22.680,0.055,-0.504,1.254
10/4/2023 15:20:22.690,0.156,-0.395,1.289
10/4/2023 15:20:22.700,0.215,-0.316,1.313
10/4/2023 15:20:22.710,0.227,-0.285,1.328
10/4/2023 15:20:22.720,0.23,-0.293,1.324
10/4/2023 15:20:22.730,0.242,-0.316,1.313
10/4/2023 15:20:22.740,0.254,-0.332,1.285
10/4/2023 15:20:22.750,0.254,-0.328,1.238
10/4/2023 15:20:22.760,0.23,-0.297,1.176
10/4/2023 15:20:22.770,0.203,-0.258,1.117
10/4/2023 15:20:22.780,0.18,-0.23,1.055
10/4/2023 15:20:22.790,0.156,-0.227,0.996
10/4/2023 15:20:22.800,0.145,-0.234,0.938
10/4/2023 15:20:22.810,0.137,-0.254,0.887
10/4/2023 15:20:22.820,0.133,-0.285,0.84
10/4/2023 15:20:22.830,0.125,-0.324,0.801
10/4/2023 15:20:22.840,0.105,-0.359,0.758
10/4/2023 15:20:22.850,0.082,-0.379,0.723
10/4/2023 15:20:22.860,0.063,-0.387,0.688
10/4/2023 15:20:22.870,0.043,-0.387,0.656
10/4/2023 15:20:22.880,0.035,-0.383,0.645
10/4/2023 15:20:22.890,0.035,-0.383,0.648
10/4/2023 15:20:22.900,0.039,-0.395,0.656
10/4/2023 15:20:22.910,0.031,-0.422,0.668
10/4/2023 15:20:22.920,0.02,-0.445,0.68
10/4/2023 15:20:22.930,0.016,-0.453,0.688
10/4/2023 15:20:22.940,0.016,-0.441,0.691
10/4/2023 15:20:22.950,0.031,-0.414,0.699
10/4/2023 15:20:22.960,0.039,-0.398,0.715
10/4/2023 15:20:22.970,0.051,-0.395,0.742
10/4/2023 15:20:22.980,0.055,-0.406,0.77
10/4/2023 15:20:22.990,0.051,-0.438,0.797
10/4/2023 15:20:23.000,0.035,-0.465,0.82
10/4/2023 15:20:23.010,0.047,-0.492,0.852
10/4/2023 15:20:23.020,0.063,-0.508,0.875
10/4/2023 15:20:23.030,0.086,-0.504,0.898
10/4/2023 15:20:23.040,0.117,-0.504,0.918
10/4/2023 15:20:23.050,0.133,-0.512,0.941
10/4/2023 15:20:23.060,0.141,-0.535,0.969
10/4/2023 15:20:23.070,0.133,-0.574,0.996
10/4/2023 15:20:23.080,0.117,-0.617,1.016
10/4/2023 15:20:23.090,0.117,-0.656,1.023
10/4/2023 15:20:23.100,0.133,-0.676,1.02
10/4/2023 15:20:23.110,0.133,-0.684,1.008
10/4/2023 15:20:23.120,0.105,-0.695,0.988
10/4/2023 15:20:23.130,0.074,-0.703,0.98
10/4/2023 15:20:23.140,0.047,-0.707,0.98
10/4/2023 15:20:23.150,0.02,-0.707,0.98
10/4/2023 15:20:23.160,0.004,-0.695,0.977
10/4/2023 15:20:23.170,-0.004,-0.695,0.977
10/4/2023 15:20:23.180,0.004,-0.699,0.98
10/4/2023 15:20:23.190,0.031,-0.703,0.984
10/4/2023 15:20:23.200,0.066,-0.699,0.984
10/4/2023 15:20:23.210,0.098,-0.684,0.973
10/4/2023 15:20:23.220,0.117,-0.668,0.973
10/4/2023 15:20:23.230,0.125,-0.68,0.996
10/4/2023 15:20:23.240,0.195,-0.688,1.027
10/4/2023 15:20:23.250,0.285,-0.672,1.039
10/4/2023 15:20:23.260,0.336,-0.633,1.027
10/4/2023 15:20:23.270,0.332,-0.598,0.996
10/4/2023 15:20:23.280,0.293,-0.566,0.961
10/4/2023 15:20:23.290,0.273,-0.512,0.945
10/4/2023 15:20:23.300,0.281,-0.438,0.949
10/4/2023 15:20:23.310,0.316,-0.383,0.941
10/4/2023 15:20:23.320,0.352,-0.371,0.926
10/4/2023 15:20:23.330,0.371,-0.383,0.906
10/4/2023 15:20:23.340,0.371,-0.426,0.895
10/4/2023 15:20:23.350,0.375,-0.453,0.898
10/4/2023 15:20:23.360,0.395,-0.461,0.902
10/4/2023 15:20:23.370,0.426,-0.438,0.902
10/4/2023 15:20:23.380,0.461,-0.379,0.883
10/4/2023 15:20:23.390,0.48,-0.309,0.836
10/4/2023 15:20:23.400,0.465,-0.289,0.797
10/4/2023 15:20:23.410,0.422,-0.324,0.766
10/4/2023 15:20:23.420,0.363,-0.395,0.75
10/4/2023 15:20:23.430,0.309,-0.449,0.734
10/4/2023 15:20:23.440,0.27,-0.457,0.719
10/4/2023 15:20:23.450,0.242,-0.441,0.699
10/4/2023 15:20:23.460,0.211,-0.395,0.676
10/4/2023 15:20:23.470,0.172,-0.371,0.66
10/4/2023 15:20:23.480,0.121,-0.367,0.656
10/4/2023 15:20:23.490,0.09,-0.387,0.652
10/4/2023 15:20:23.500,0.063,-0.426,0.652
10/4/2023 15:20:23.510,0.051,-0.477,0.652
10/4/2023 15:20:23.520,0.027,-0.52,0.652
10/4/2023 15:20:23.530,-0.004,-0.551,0.652
10/4/2023 15:20:23.540,-0.023,-0.563,0.641
10/4/2023 15:20:23.550,-0.039,-0.555,0.641
10/4/2023 15:20:23.560,-0.047,-0.527,0.648
10/4/2023 15:20:23.570,-0.039,-0.504,0.668
10/4/2023 15:20:23.580,-0.02,-0.504,0.699
10/4/2023 15:20:23.590,-0.008,-0.531,0.727
10/4/2023 15:20:23.600,-0.012,-0.559,0.75
10/4/2023 15:20:23.610,-0.035,-0.578,0.766
10/4/2023 15:20:23.620,-0.059,-0.574,0.777
10/4/2023 15:20:23.630,-0.07,-0.57,0.793
10/4/2023 15:20:23.640,-0.07,-0.563,0.82
10/4/2023 15:20:23.650,-0.055,-0.566,0.863
10/4/2023 15:20:23.660,-0.035,-0.582,0.898
10/4/2023 15:20:23.670,-0.008,-0.617,0.93
10/4/2023 15:20:23.680,-0.004,-0.656,0.957
10/4/2023 15:20:23.690,-0.004,-0.695,0.973
10/4/2023 15:20:23.700,-0.004,-0.723,0.984
10/4/2023 15:20:23.710,0.012,-0.734,0.996
10/4/2023 15:20:23.720,0.02,-0.711,1.023
10/4/2023 15:20:23.730,0.031,-0.664,1.043
10/4/2023 15:20:23.740,0.035,-0.621,1.035
10/4/2023 15:20:23.750,0.027,-0.582,1.008
10/4/2023 15:20:23.760,0.016,-0.57,0.988
10/4/2023 15:20:23.770,-0.039,-0.602,0.977
10/4/2023 15:20:23.780,-0.176,-0.672,1.016
10/4/2023 15:20:23.790,-0.262,-0.742,1.074
10/4/2023 15:20:23.800,-0.227,-0.73,1.121
10/4/2023 15:20:23.810,-0.188,-0.641,1.164
10/4/2023 15:20:23.820,-0.18,-0.551,1.207
10/4/2023 15:20:23.830,-0.148,-0.461,1.277
10/4/2023 15:20:23.840,-0.094,-0.352,1.344
10/4/2023 15:20:23.850,-0.055,-0.258,1.414
10/4/2023 15:20:23.860,-0.02,-0.23,1.461
10/4/2023 15:20:23.870,0.031,-0.238,1.477
10/4/2023 15:20:23.880,0.082,-0.25,1.457
10/4/2023 15:20:23.890,0.121,-0.254,1.418
10/4/2023 15:20:23.900,0.133,-0.25,1.367
10/4/2023 15:20:23.910,0.133,-0.227,1.32
10/4/2023 15:20:23.920,0.129,-0.207,1.273
10/4/2023 15:20:23.930,0.125,-0.191,1.223
10/4/2023 15:20:23.940,0.125,-0.176,1.188
10/4/2023 15:20:23.950,0.137,-0.152,1.145
10/4/2023 15:20:23.960,0.156,-0.152,1.082
10/4/2023 15:20:23.970,0.164,-0.18,1.012
10/4/2023 15:20:23.980,0.141,-0.25,0.93
10/4/2023 15:20:23.990,0.117,-0.316,0.852
10/4/2023 15:20:24.000,0.09,-0.363,0.785
10/4/2023 15:20:24.010,0.086,-0.395,0.738
10/4/2023 15:20:24.020,0.082,-0.395,0.699
10/4/2023 15:20:24.030,0.07,-0.375,0.684
10/4/2023 15:20:24.040,0.047,-0.348,0.676
10/4/2023 15:20:24.050,0.027,-0.328,0.664
10/4/2023 15:20:24.060,0.008,-0.297,0.66
10/4/2023 15:20:24.070,-0.016,-0.281,0.664
10/4/2023 15:20:24.080,-0.027,-0.281,0.668
10/4/2023 15:20:24.090,-0.02,-0.281,0.672
10/4/2023 15:20:24.100,-0.004,-0.285,0.672
10/4/2023 15:20:24.110,0.004,-0.293,0.68
10/4/2023 15:20:24.120,0.012,-0.301,0.691
10/4/2023 15:20:24.130,0.016,-0.309,0.719
10/4/2023 15:20:24.140,0.023,-0.316,0.754
10/4/2023 15:20:24.150,0.031,-0.328,0.777
10/4/2023 15:20:24.160,0.039,-0.332,0.789
10/4/2023 15:20:24.170,0.051,-0.352,0.805
10/4/2023 15:20:24.180,0.055,-0.371,0.816
10/4/2023 15:20:24.190,0.039,-0.391,0.84
10/4/2023 15:20:24.200,0.016,-0.414,0.867
10/4/2023 15:20:24.210,-0.004,-0.438,0.879
10/4/2023 15:20:24.220,-0.031,-0.461,0.883
10/4/2023 15:20:24.230,-0.055,-0.484,0.887
10/4/2023 15:20:24.240,-0.074,-0.508,0.887
10/4/2023 15:20:24.250,-0.086,-0.535,0.898
10/4/2023 15:20:24.260,-0.09,-0.559,0.906
10/4/2023 15:20:24.270,-0.082,-0.582,0.914
10/4/2023 15:20:24.280,-0.078,-0.602,0.926
10/4/2023 15:20:24.290,-0.082,-0.613,0.945
10/4/2023 15:20:24.300,-0.094,-0.629,0.957
10/4/2023 15:20:24.310,-0.102,-0.648,0.969
10/4/2023 15:20:24.320,-0.09,-0.68,0.988
10/4/2023 15:20:24.330,-0.055,-0.691,1.008
10/4/2023 15:20:24.340,-0.008,-0.691,1.02
10/4/2023 15:20:24.350,0.02,-0.695,1.031
10/4/2023 15:20:24.360,0.02,-0.727,1.063
10/4/2023 15:20:24.370,0.055,-0.781,1.098
10/4/2023 15:20:24.380,0.168,-0.777,1.137
10/4/2023 15:20:24.390,0.297,-0.707,1.168
10/4/2023 15:20:24.400,0.391,-0.629,1.176
10/4/2023 15:20:24.410,0.43,-0.578,1.172
10/4/2023 15:20:24.420,0.402,-0.52,1.184
10/4/2023 15:20:24.430,0.355,-0.457,1.203
10/4/2023 15:20:24.440,0.359,-0.453,1.203
10/4/2023 15:20:24.450,0.414,-0.461,1.195
10/4/2023 15:20:24.460,0.477,-0.457,1.176
10/4/2023 15:20:24.470,0.512,-0.438,1.141
10/4/2023 15:20:24.480,0.523,-0.41,1.117
10/4/2023 15:20:24.490,0.531,-0.387,1.117
10/4/2023 15:20:24.500,0.531,-0.371,1.098
10/4/2023 15:20:24.510,0.52,-0.359,1.059
10/4/2023 15:20:24.520,0.484,-0.34,0.996
10/4/2023 15:20:24.530,0.43,-0.332,0.918
10/4/2023 15:20:24.540,0.355,-0.34,0.855
10/4/2023 15:20:24.550,0.285,-0.355,0.805
10/4/2023 15:20:24.560,0.234,-0.352,0.77
10/4/2023 15:20:24.570,0.199,-0.332,0.754
10/4/2023 15:20:24.580,0.164,-0.301,0.746
10/4/2023 15:20:24.590,0.129,-0.273,0.746
10/4/2023 15:20:24.600,0.098,-0.262,0.754
10/4/2023 15:20:24.610,0.063,-0.27,0.762
10/4/2023 15:20:24.620,0.043,-0.297,0.758
10/4/2023 15:20:24.630,0.012,-0.336,0.738
10/4/2023 15:20:24.640,-0.012,-0.367,0.734
10/4/2023 15:20:24.650,-0.012,-0.375,0.738
10/4/2023 15:20:24.660,0.004,-0.371,0.742
10/4/2023 15:20:24.670,0.023,-0.363,0.742
10/4/2023 15:20:24.680,0.043,-0.359,0.742
10/4/2023 15:20:24.690,0.055,-0.371,0.75
10/4/2023 15:20:24.700,0.051,-0.383,0.758
10/4/2023 15:20:24.710,0.039,-0.395,0.766
10/4/2023 15:20:24.720,0.023,-0.398,0.785
10/4/2023 15:20:24.730,0.016,-0.383,0.813
10/4/2023 15:20:24.740,0.027,-0.359,0.859
10/4/2023 15:20:24.750,0.055,-0.336,0.898
10/4/2023 15:20:24.760,0.074,-0.328,0.922
10/4/2023 15:20:24.770,0.07,-0.348,0.945
10/4/2023 15:20:24.780,0.07,-0.379,0.977
10/4/2023 15:20:24.790,0.074,-0.406,1.012
10/4/2023 15:20:24.800,0.086,-0.445,1.031
10/4/2023 15:20:24.810,0.102,-0.469,1.043
10/4/2023 15:20:24.820,0.113,-0.496,1.055
10/4/2023 15:20:24.830,0.125,-0.539,1.066
10/4/2023 15:20:24.840,0.141,-0.586,1.09
10/4/2023 15:20:24.850,0.16,-0.613,1.105
10/4/2023 15:20:24.860,0.164,-0.598,1.098
10/4/2023 15:20:24.870,0.152,-0.551,1.066
10/4/2023 15:20:24.880,0.121,-0.512,1.023
10/4/2023 15:20:24.890,0.082,-0.492,0.98
10/4/2023 15:20:24.900,0,-0.52,0.953
10/4/2023 15:20:24.910,-0.129,-0.617,0.961
10/4/2023 15:20:24.920,-0.238,-0.711,1.008
10/4/2023 15:20:24.930,-0.227,-0.746,1.059
10/4/2023 15:20:24.940,-0.098,-0.66,1.094
10/4/2023 15:20:24.950,0.012,-0.496,1.098
10/4/2023 15:20:24.960,0.039,-0.375,1.082
10/4/2023 15:20:24.970,-0.016,-0.34,1.082
10/4/2023 15:20:24.980,-0.066,-0.375,1.105
10/4/2023 15:20:24.990,-0.078,-0.422,1.121
10/4/2023 15:20:25.000,-0.074,-0.449,1.125
10/4/2023 15:20:25.010,-0.055,-0.453,1.109
10/4/2023 15:20:25.020,-0.047,-0.43,1.074
10/4/2023 15:20:25.030,-0.02,-0.383,1.043
10/4/2023 15:20:25.040,0.016,-0.328,1.023
10/4/2023 15:20:25.050,0.043,-0.285,1.02
10/4/2023 15:20:25.060,0.063,-0.262,1.02
10/4/2023 15:20:25.070,0.063,-0.277,1.027
10/4/2023 15:20:25.080,0.063,-0.316,1.027
10/4/2023 15:20:25.090,0.07,-0.355,1.02
10/4/2023 15:20:25.100,0.09,-0.387,0.992
10/4/2023 15:20:25.110,0.098,-0.41,0.953
10/4/2023 15:20:25.120,0.09,-0.422,0.902
10/4/2023 15:20:25.130,0.074,-0.43,0.859
10/4/2023 15:20:25.140,0.059,-0.426,0.828
10/4/2023 15:20:25.150,0.047,-0.41,0.801
10/4/2023 15:20:25.160,0.031,-0.402,0.773
10/4/2023 15:20:25.170,0.008,-0.391,0.746
10/4/2023 15:20:25.180,-0.02,-0.383,0.73
10/4/2023 15:20:25.190,-0.039,-0.383,0.727
10/4/2023 15:20:25.200,-0.039,-0.379,0.727
10/4/2023 15:20:25.210,-0.031,-0.371,0.73
10/4/2023 15:20:25.220,-0.02,-0.371,0.727
10/4/2023 15:20:25.230,-0.023,-0.379,0.715
10/4/2023 15:20:25.240,-0.035,-0.387,0.715
10/4/2023 15:20:25.250,-0.031,-0.379,0.723
10/4/2023 15:20:25.260,0,-0.352,0.734
10/4/2023 15:20:25.270,0.02,-0.332,0.738
10/4/2023 15:20:25.280,0.02,-0.336,0.742
10/4/2023 15:20:25.290,0.008,-0.363,0.746
10/4/2023 15:20:25.300,0.004,-0.387,0.762
10/4/2023 15:20:25.310,0,-0.395,0.777
10/4/2023 15:20:25.320,-0.008,-0.383,0.805
10/4/2023 15:20:25.330,-0.027,-0.375,0.828
10/4/2023 15:20:25.340,-0.047,-0.371,0.859
10/4/2023 15:20:25.350,-0.059,-0.359,0.895
10/4/2023 15:20:25.360,-0.051,-0.336,0.953
10/4/2023 15:20:25.370,-0.02,-0.301,1.012
10/4/2023 15:20:25.380,0.023,-0.289,1.066
10/4/2023 15:20:25.390,0.043,-0.313,1.121
10/4/2023 15:20:25.400,0.055,-0.363,1.16
10/4/2023 15:20:25.410,0.063,-0.414,1.184
10/4/2023 15:20:25.420,0.063,-0.445,1.195
10/4/2023 15:20:25.430,0.059,-0.457,1.207
10/4/2023 15:20:25.440,0.059,-0.465,1.227
10/4/2023 15:20:25.450,0.094,-0.453,1.254
10/4/2023 15:20:25.460,0.137,-0.438,1.277
10/4/2023 15:20:25.470,0.211,-0.406,1.281
10/4/2023 15:20:25.480,0.293,-0.371,1.246
10/4/2023 15:20:25.490,0.336,-0.328,1.18
10/4/2023 15:20:25.500,0.313,-0.281,1.102
10/4/2023 15:20:25.510,0.289,-0.254,1.059
10/4/2023 15:20:25.520,0.266,-0.211,1.027
10/4/2023 15:20:25.530,0.262,-0.164,1.016
10/4/2023 15:20:25.540,0.273,-0.105,0.988
10/4/2023 15:20:25.550,0.293,-0.094,0.949
10/4/2023 15:20:25.560,0.297,-0.133,0.887
10/4/2023 15:20:25.570,0.25,-0.191,0.828
10/4/2023 15:20:25.580,0.18,-0.25,0.777
10/4/2023 15:20:25.590,0.113,-0.277,0.73
10/4/2023 15:20:25.600,0.07,-0.246,0.719
10/4/2023 15:20:25.610,0.063,-0.176,0.723
10/4/2023 15:20:25.620,0.07,-0.117,0.73
10/4/2023 15:20:25.630,0.078,-0.078,0.758
10/4/2023 15:20:25.640,0.086,-0.074,0.789
10/4/2023 15:20:25.650,0.082,-0.102,0.828
10/4/2023 15:20:25.660,0.074,-0.137,0.859
10/4/2023 15:20:25.670,0.082,-0.156,0.879
10/4/2023 15:20:25.680,0.105,-0.145,0.906
10/4/2023 15:20:25.690,0.152,-0.117,0.938
10/4/2023 15:20:25.700,0.203,-0.105,0.965
10/4/2023 15:20:25.710,0.246,-0.098,1.008
10/4/2023 15:20:25.720,0.273,-0.078,1.059
10/4/2023 15:20:25.730,0.301,-0.07,1.098
10/4/2023 15:20:25.740,0.309,-0.074,1.137
10/4/2023 15:20:25.750,0.313,-0.078,1.168
10/4/2023 15:20:25.760,0.309,-0.082,1.176
10/4/2023 15:20:25.770,0.309,-0.074,1.18
10/4/2023 15:20:25.780,0.301,-0.059,1.18
10/4/2023 15:20:25.790,0.297,-0.047,1.18
10/4/2023 15:20:25.800,0.289,-0.035,1.176
10/4/2023 15:20:25.810,0.277,-0.031,1.172
10/4/2023 15:20:25.820,0.27,-0.031,1.164
10/4/2023 15:20:25.830,0.262,-0.047,1.152
10/4/2023 15:20:25.840,0.25,-0.043,1.145
10/4/2023 15:20:25.850,0.246,-0.039,1.145
10/4/2023 15:20:25.860,0.246,-0.031,1.137
10/4/2023 15:20:25.870,0.246,-0.027,1.137
10/4/2023 15:20:25.880,0.246,-0.023,1.137
10/4/2023 15:20:25.890,0.246,-0.023,1.137
10/4/2023 15:20:25.900,0.25,-0.023,1.137
10/4/2023 15:20:25.910,0.258,-0.016,1.137
10/4/2023 15:20:25.920,0.27,-0.02,1.133
10/4/2023 15:20:25.930,0.281,-0.023,1.125
10/4/2023 15:20:25.940,0.293,-0.027,1.113
10/4/2023 15:20:25.950,0.305,-0.039,1.086
10/4/2023 15:20:25.960,0.301,-0.047,1.051
10/4/2023 15:20:25.970,0.285,-0.039,1.035
10/4/2023 15:20:25.980,0.27,-0.027,1.035
10/4/2023 15:20:25.990,0.242,0.008,1.074
10/4/2023 15:20:26.000,0.219,0.074,1.16
10/4/2023 15:20:26.010,0.301,0.145,1.258
10/4/2023 15:20:26.020,0.41,0.207,1.285
10/4/2023 15:20:26.030,0.473,0.234,1.27
10/4/2023 15:20:26.040,0.473,0.199,1.227
10/4/2023 15:20:26.050,0.449,0.137,1.211
10/4/2023 15:20:26.060,0.43,0.066,1.215
10/4/2023 15:20:26.070,0.434,0.027,1.211
10/4/2023 15:20:26.080,0.441,0.039,1.191
10/4/2023 15:20:26.090,0.41,0.066,1.16
10/4/2023 15:20:26.100,0.355,0.074,1.152
10/4/2023 15:20:26.110,0.281,0.066,1.176
10/4/2023 15:20:26.120,0.23,0.063,1.227
10/4/2023 15:20:26.130,0.215,0.055,1.273
10/4/2023 15:20:26.140,0.211,0.066,1.293
10/4/2023 15:20:26.150,0.215,0.137,1.297
10/4/2023 15:20:26.160,0.203,0.191,1.301
10/4/2023 15:20:26.170,0.188,0.215,1.305
10/4/2023 15:20:26.180,0.156,0.219,1.316
10/4/2023 15:20:26.190,0.125,0.23,1.336
10/4/2023 15:20:26.200,0.094,0.254,1.328
10/4/2023 15:20:26.210,0.051,0.309,1.301
10/4/2023 15:20:26.220,0.012,0.41,1.273
10/4/2023 15:20:26.230,-0.012,0.527,1.25
10/4/2023 15:20:26.240,-0.012,0.617,1.242
10/4/2023 15:20:26.250,0.008,0.695,1.262
10/4/2023 15:20:26.260,0.016,0.73,1.27
10/4/2023 15:20:26.270,-0.02,0.73,1.242
10/4/2023 15:20:26.280,-0.094,0.746,1.156
10/4/2023 15:20:26.290,-0.191,0.82,1.039
10/4/2023 15:20:26.300,-0.281,0.91,0.902
10/4/2023 15:20:26.310,-0.344,0.988,0.793
10/4/2023 15:20:26.320,-0.398,1.035,0.738
10/4/2023 15:20:26.330,-0.43,1.016,0.707
10/4/2023 15:20:26.340,-0.48,0.969,0.703
10/4/2023 15:20:26.350,-0.504,0.945,0.695
10/4/2023 15:20:26.360,-0.559,0.926,0.637
10/4/2023 15:20:26.370,-0.574,0.961,0.555
10/4/2023 15:20:26.380,-0.555,1.047,0.473
10/4/2023 15:20:26.390,-0.504,1.137,0.387
10/4/2023 15:20:26.400,-0.461,1.152,0.32
10/4/2023 15:20:26.410,-0.43,1.102,0.309
10/4/2023 15:20:26.420,-0.379,0.98,0.316
10/4/2023 15:20:26.430,-0.305,0.844,0.34
10/4/2023 15:20:26.440,-0.203,0.707,0.336
10/4/2023 15:20:26.450,-0.117,0.594,0.336
10/4/2023 15:20:26.460,-0.043,0.484,0.359
10/4/2023 15:20:26.470,0.008,0.332,0.383
10/4/2023 15:20:26.480,0.039,0.148,0.414
10/4/2023 15:20:26.490,0.051,-0.047,0.438
10/4/2023 15:20:26.500,0.027,-0.219,0.438
10/4/2023 15:20:26.510,-0.008,-0.363,0.418
10/4/2023 15:20:26.520,-0.047,-0.426,0.414
10/4/2023 15:20:26.530,-0.07,-0.449,0.402
10/4/2023 15:20:26.540,-0.082,-0.488,0.406
10/4/2023 15:20:26.550,-0.102,-0.543,0.434
10/4/2023 15:20:26.560,-0.133,-0.586,0.469
10/4/2023 15:20:26.570,-0.172,-0.621,0.496
10/4/2023 15:20:26.580,-0.191,-0.648,0.52
10/4/2023 15:20:26.590,-0.195,-0.684,0.566
10/4/2023 15:20:26.600,-0.207,-0.715,0.547
10/4/2023 15:20:26.610,-0.242,-0.684,0.492
10/4/2023 15:20:26.620,-0.305,-0.637,0.426
10/4/2023 15:20:26.630,-0.375,-0.648,0.379
10/4/2023 15:20:26.640,-0.43,-0.719,0.418
10/4/2023 15:20:26.650,-0.445,-0.809,0.52
10/4/2023 15:20:26.660,-0.457,-0.844,0.621
10/4/2023 15:20:26.670,-0.516,-0.766,0.742
10/4/2023 15:20:26.680,-0.574,-0.613,0.848
10/4/2023 15:20:26.690,-0.5,-0.477,0.914
10/4/2023 15:20:26.700,-0.426,-0.313,0.953
10/4/2023 15:20:26.710,-0.426,-0.191,0.969
10/4/2023 15:20:26.720,-0.477,-0.215,0.98
10/4/2023 15:20:26.730,-0.492,-0.309,0.961
10/4/2023 15:20:26.740,-0.473,-0.383,0.938
10/4/2023 15:20:26.750,-0.504,-0.422,0.887
10/4/2023 15:20:26.760,-0.711,-0.422,0.703
10/4/2023 15:20:26.770,-0.82,-0.297,0.691
10/4/2023 15:20:26.780,-0.645,-0.305,0.656
10/4/2023 15:20:26.790,-0.605,-0.348,0.582
10/4/2023 15:20:26.800,-0.727,-0.367,0.504
10/4/2023 15:20:26.810,-0.789,-0.367,0.477
10/4/2023 15:20:26.820,-0.797,-0.32,0.484
10/4/2023 15:20:26.830,-0.828,-0.266,0.453
10/4/2023 15:20:26.840,-0.898,-0.27,0.406
10/4/2023 15:20:26.850,-0.969,-0.32,0.383
10/4/2023 15:20:26.860,-1.039,-0.371,0.363
10/4/2023 15:20:26.870,-1.074,-0.375,0.363
10/4/2023 15:20:26.880,-1.074,-0.344,0.371
10/4/2023 15:20:26.890,-1.063,-0.32,0.383
10/4/2023 15:20:26.900,-1.043,-0.32,0.414
10/4/2023 15:20:26.910,-1.008,-0.336,0.453
10/4/2023 15:20:26.920,-0.973,-0.359,0.488
10/4/2023 15:20:26.930,-0.938,-0.395,0.531
10/4/2023 15:20:26.940,-0.902,-0.418,0.578
10/4/2023 15:20:26.950,-0.852,-0.422,0.656
10/4/2023 15:20:26.960,-0.801,-0.414,0.715
10/4/2023 15:20:26.970,-0.75,-0.418,0.746
10/4/2023 15:20:26.980,-0.711,-0.43,0.77
10/4/2023 15:20:26.990,-0.664,-0.465,0.797
10/4/2023 15:20:27.000,-0.617,-0.512,0.813
10/4/2023 15:20:27.010,-0.559,-0.547,0.809
10/4/2023 15:20:27.020,-0.523,-0.555,0.773
10/4/2023 15:20:27.030,-0.504,-0.547,0.738
10/4/2023 15:20:27.040,-0.484,-0.555,0.707
10/4/2023 15:20:27.050,-0.453,-0.566,0.688
10/4/2023 15:20:27.060,-0.426,-0.574,0.684
10/4/2023 15:20:27.070,-0.418,-0.613,0.684
10/4/2023 15:20:27.080,-0.418,-0.605,0.676
10/4/2023 15:20:27.090,-0.43,-0.559,0.656
10/4/2023 15:20:27.100,-0.441,-0.547,0.645
10/4/2023 15:20:27.110,-0.457,-0.586,0.676
10/4/2023 15:20:27.120,-0.492,-0.617,0.699
10/4/2023 15:20:27.130,-0.566,-0.559,0.664
10/4/2023 15:20:27.140,-0.68,-0.418,0.59
10/4/2023 15:20:27.150,-0.789,-0.301,0.516
10/4/2023 15:20:27.160,-0.785,-0.285,0.508
10/4/2023 15:20:27.170,-0.77,-0.391,0.535
10/4/2023 15:20:27.180,-0.758,-0.52,0.535
10/4/2023 15:20:27.190,-0.727,-0.57,0.547
10/4/2023 15:20:27.200,-0.711,-0.551,0.543
10/4/2023 15:20:27.210,-0.746,-0.492,0.535
10/4/2023 15:20:27.220,-0.805,-0.406,0.484
10/4/2023 15:20:27.230,-0.84,-0.262,0.438
10/4/2023 15:20:27.240,-0.855,-0.195,0.414
10/4/2023 15:20:27.250,-0.879,-0.25,0.453
10/4/2023 15:20:27.260,-0.883,-0.332,0.492
10/4/2023 15:20:27.270,-0.902,-0.367,0.508
10/4/2023 15:20:27.280,-0.941,-0.352,0.492
10/4/2023 15:20:27.290,-0.961,-0.332,0.504
10/4/2023 15:20:27.300,-0.961,-0.324,0.527
10/4/2023 15:20:27.310,-0.941,-0.324,0.559
10/4/2023 15:20:27.320,-0.926,-0.324,0.598
10/4/2023 15:20:27.330,-0.926,-0.32,0.629
10/4/2023 15:20:27.340,-0.934,-0.344,0.656
10/4/2023 15:20:27.350,-0.918,-0.395,0.688
10/4/2023 15:20:27.360,-0.895,-0.434,0.727
10/4/2023 15:20:27.370,-0.863,-0.426,0.727
10/4/2023 15:20:27.380,-0.816,-0.398,0.738
10/4/2023 15:20:27.390,-0.738,-0.402,0.754
10/4/2023 15:20:27.400,-0.68,-0.445,0.777
10/4/2023 15:20:27.410,-0.652,-0.535,0.789
10/4/2023 15:20:27.420,-0.633,-0.621,0.793
10/4/2023 15:20:27.430,-0.602,-0.684,0.77
10/4/2023 15:20:27.440,-0.566,-0.715,0.754
10/4/2023 15:20:27.450,-0.543,-0.738,0.73
10/4/2023 15:20:27.460,-0.543,-0.719,0.664
10/4/2023 15:20:27.470,-0.566,-0.625,0.586
10/4/2023 15:20:27.480,-0.59,-0.5,0.527
10/4/2023 15:20:27.490,-0.609,-0.406,0.523
10/4/2023 15:20:27.500,-0.621,-0.383,0.535
10/4/2023 15:20:27.510,-0.625,-0.43,0.539
10/4/2023 15:20:27.520,-0.648,-0.469,0.516
10/4/2023 15:20:27.530,-0.676,-0.453,0.441
10/4/2023 15:20:27.540,-0.703,-0.375,0.359
10/4/2023 15:20:27.550,-0.734,-0.273,0.309
10/4/2023 15:20:27.560,-0.766,-0.234,0.309
10/4/2023 15:20:27.570,-0.785,-0.254,0.359
10/4/2023 15:20:27.580,-0.805,-0.309,0.391
10/4/2023 15:20:27.590,-0.84,-0.324,0.348
10/4/2023 15:20:27.600,-0.891,-0.273,0.328
10/4/2023 15:20:27.610,-0.922,-0.223,0.328
10/4/2023 15:20:27.620,-0.922,-0.188,0.328
10/4/2023 15:20:27.630,-0.934,-0.16,0.32
10/4/2023 15:20:27.640,-0.957,-0.145,0.313
10/4/2023 15:20:27.650,-0.973,-0.141,0.316
10/4/2023 15:20:27.660,-0.98,-0.156,0.332
10/4/2023 15:20:27.670,-0.984,-0.16,0.344
10/4/2023 15:20:27.680,-0.992,-0.133,0.328
10/4/2023 15:20:27.690,-0.992,-0.094,0.336
10/4/2023 15:20:27.700,-0.977,-0.074,0.367
10/4/2023 15:20:27.710,-0.957,-0.113,0.395
10/4/2023 15:20:27.720,-0.938,-0.176,0.449
10/4/2023 15:20:27.730,-0.91,-0.238,0.504
10/4/2023 15:20:27.740,-0.879,-0.285,0.547
10/4/2023 15:20:27.750,-0.852,-0.305,0.578
10/4/2023 15:20:27.760,-0.824,-0.289,0.582
10/4/2023 15:20:27.770,-0.805,-0.27,0.574
10/4/2023 15:20:27.780,-0.793,-0.262,0.563
10/4/2023 15:20:27.790,-0.781,-0.273,0.551
10/4/2023 15:20:27.800,-0.766,-0.293,0.559
10/4/2023 15:20:27.810,-0.75,-0.309,0.57
10/4/2023 15:20:27.820,-0.742,-0.316,0.578
10/4/2023 15:20:27.830,-0.734,-0.32,0.574
10/4/2023 15:20:27.840,-0.738,-0.32,0.566
10/4/2023 15:20:27.850,-0.746,-0.316,0.551
10/4/2023 15:20:27.860,-0.746,-0.309,0.539
10/4/2023 15:20:27.870,-0.73,-0.297,0.543
10/4/2023 15:20:27.880,-0.719,-0.277,0.563
10/4/2023 15:20:27.890,-0.699,-0.246,0.598
10/4/2023 15:20:27.900,-0.676,-0.211,0.641
10/4/2023 15:20:27.910,-0.664,-0.176,0.672
10/4/2023 15:20:27.920,-0.66,-0.164,0.695
10/4/2023 15:20:27.930,-0.668,-0.156,0.711
10/4/2023 15:20:27.940,-0.668,-0.176,0.73
10/4/2023 15:20:27.950,-0.652,-0.195,0.738
10/4/2023 15:20:27.960,-0.637,-0.207,0.754
10/4/2023 15:20:27.970,-0.629,-0.207,0.773
10/4/2023 15:20:27.980,-0.613,-0.215,0.793
10/4/2023 15:20:27.990,-0.594,-0.223,0.824
10/4/2023 15:20:28.000,-0.578,-0.238,0.859
10/4/2023 15:20:28.010,-0.555,-0.27,0.879
10/4/2023 15:20:28.020,-0.543,-0.289,0.898
10/4/2023 15:20:28.030,-0.527,-0.305,0.914
10/4/2023 15:20:28.040,-0.523,-0.316,0.91
10/4/2023 15:20:28.050,-0.508,-0.32,0.91
10/4/2023 15:20:28.060,-0.48,-0.313,0.926
10/4/2023 15:20:28.070,-0.449,-0.289,0.949
10/4/2023 15:20:28.080,-0.426,-0.266,0.973
10/4/2023 15:20:28.090,-0.43,-0.27,1
10/4/2023 15:20:28.100,-0.426,-0.297,1.031
10/4/2023 15:20:28.110,-0.398,-0.324,1.043
10/4/2023 15:20:28.120,-0.359,-0.328,1.055
10/4/2023 15:20:28.130,-0.332,-0.32,1.063
10/4/2023 15:20:28.140,-0.32,-0.328,1.063
10/4/2023 15:20:28.150,-0.316,-0.336,1.063
10/4/2023 15:20:28.160,-0.313,-0.359,1.07
10/4/2023 15:20:28.170,-0.297,-0.363,1.098
10/4/2023 15:20:28.180,-0.262,-0.355,1.117
10/4/2023 15:20:28.190,-0.211,-0.324,1.125
10/4/2023 15:20:28.200,-0.164,-0.297,1.117
10/4/2023 15:20:28.210,-0.129,-0.285,1.098
10/4/2023 15:20:28.220,-0.098,-0.281,1.086
10/4/2023 15:20:28.230,-0.078,-0.297,1.09
10/4/2023 15:20:28.240,-0.063,-0.328,1.086
10/4/2023 15:20:28.250,-0.055,-0.359,1.078
10/4/2023 15:20:28.260,-0.047,-0.383,1.051
10/4/2023 15:20:28.270,-0.031,-0.379,1.027
10/4/2023 15:20:28.280,-0.008,-0.363,1.012
10/4/2023 15:20:28.290,0.012,-0.352,1.004
10/4/2023 15:20:28.300,0.031,-0.352,0.992
10/4/2023 15:20:28.310,0.043,-0.363,0.984
10/4/2023 15:20:28.320,0.039,-0.383,0.969
10/4/2023 15:20:28.330,0.035,-0.41,0.949
10/4/2023 15:20:28.340,0.031,-0.441,0.93
10/4/2023 15:20:28.350,0.027,-0.461,0.91
10/4/2023 15:20:28.360,0.012,-0.469,0.895
10/4/2023 15:20:28.370,0.008,-0.461,0.891
10/4/2023 15:20:28.380,0,-0.445,0.887
10/4/2023 15:20:28.390,0,-0.422,0.887
10/4/2023 15:20:28.400,0.004,-0.395,0.891
10/4/2023 15:20:28.410,0.008,-0.383,0.895
10/4/2023 15:20:28.420,0.016,-0.391,0.91
10/4/2023 15:20:28.430,0.023,-0.41,0.918
10/4/2023 15:20:28.440,0.027,-0.438,0.93
10/4/2023 15:20:28.450,0.035,-0.477,0.945
10/4/2023 15:20:28.460,0.059,-0.504,0.953
10/4/2023 15:20:28.470,0.086,-0.527,0.973
10/4/2023 15:20:28.480,0.113,-0.539,0.984
10/4/2023 15:20:28.490,0.145,-0.551,0.992
10/4/2023 15:20:28.500,0.16,-0.551,0.996
10/4/2023 15:20:28.510,0.172,-0.547,1.004
10/4/2023 15:20:28.520,0.195,-0.539,1
10/4/2023 15:20:28.530,0.211,-0.535,0.996
10/4/2023 15:20:28.540,0.23,-0.535,0.988
10/4/2023 15:20:28.550,0.238,-0.543,0.973
10/4/2023 15:20:28.560,0.238,-0.551,0.953
10/4/2023 15:20:28.570,0.23,-0.559,0.938
10/4/2023 15:20:28.580,0.219,-0.563,0.93
10/4/2023 15:20:28.590,0.215,-0.551,0.922
10/4/2023 15:20:28.600,0.219,-0.539,0.914
10/4/2023 15:20:28.610,0.219,-0.52,0.898
10/4/2023 15:20:28.620,0.215,-0.512,0.875
10/4/2023 15:20:28.630,0.203,-0.523,0.855
10/4/2023 15:20:28.640,0.191,-0.531,0.84
10/4/2023 15:20:28.650,0.188,-0.543,0.828
10/4/2023 15:20:28.660,0.188,-0.547,0.816
